onset	duration	trial_type	response_time	task_type	response_type	update_cond	cate_c	cate_b	cate_o	trial_id	word_id	img_id	stim_c	stim_b	design_onset
2.016	2.000	no response	n/a	practice a-b	no response	test	scene	object	face	1	74	74	274	126	2.000
6.515	2.000	correct	0.547	practice a-b	object	test	face	object	scene	2	52	52	52	104	6.500
11.013	2.000	no response	n/a	practice a-b	no response	restudy	object	face	scene	3	3	3	151	3	11.000
15.512	2.000	no response	n/a	practice a-b	no response	restudy	face	object	scene	4	61	61	61	113	15.500
20.011	2.000	no response	n/a	practice a-b	no response	restudy	object	scene	face	5	143	143	195	247	20.000
24.509	2.000	incorrect	0.012	practice a-b	object	restudy	object	face	scene	6	19	19	167	19	24.500
29.008	2.000	no response	n/a	practice a-b	no response	restudy	face	scene	object	7	105	105	81	209	29.000
33.507	2.000	no response	n/a	practice a-b	no response	restudy	object	face	scene	8	5	5	153	5	33.500
38.022	2.000	no response	n/a	practice a-b	no response	test	face	object	scene	9	54	54	54	106	38.000
42.520	2.000	incorrect	0.260	practice a-b	object	test	object	face	scene	10	10	10	158	10	42.500
47.019	2.000	correct	0.220	practice a-b	face	restudy	scene	face	object	11	39	39	263	39	47.000
51.518	2.000	no response	n/a	practice a-b	no response	restudy	face	object	scene	12	65	65	65	117	51.500
56.016	2.000	correct	0.014	practice a-b	scene	restudy	object	scene	face	13	133	133	185	237	56.000
60.515	2.000	no response	n/a	practice a-b	no response	restudy	face	object	scene	14	67	67	67	119	60.500
65.014	2.000	no response	n/a	practice a-b	no response	restudy	object	face	scene	15	7	7	155	7	65.000
69.512	2.000	incorrect	0.473	practice a-b	object	test	face	scene	object	16	106	106	82	210	69.500
74.011	2.000	correct	0.259	practice a-b	object	test	face	object	scene	17	50	50	50	102	74.000
78.509	2.000	correct	0.213	practice a-b	face	restudy	scene	face	object	18	25	25	249	25	78.500
83.008	2.000	correct	0.318	practice a-b	scene	test	object	scene	face	19	122	122	174	226	83.000
87.507	2.000	incorrect	0.252	practice a-b	object	restudy	scene	face	object	20	27	27	251	27	87.500
92.022	2.000	incorrect	0.298	practice a-b	scene	restudy	face	object	scene	21	55	55	55	107	92.000
96.521	2.000	incorrect	0.010	practice a-b	face	restudy	face	object	scene	22	53	53	53	105	96.500
101.019	2.000	correct	0.684	practice a-b	object	restudy	scene	object	face	23	93	93	293	145	101.000
105.518	2.000	correct	0.556	practice a-b	object	test	scene	object	face	24	90	90	290	142	105.500
110.017	2.000	incorrect	0.364	practice a-b	scene	test	scene	object	face	25	84	84	284	136	110.000
114.515	2.000	incorrect	0.255	practice a-b	scene	test	scene	face	object	26	42	42	266	42	114.500
119.014	2.000	correct	0.630	practice a-b	object	test	scene	object	face	27	92	92	292	144	119.000
123.512	2.000	incorrect	0.384	practice a-b	face	restudy	face	object	scene	28	63	63	63	115	123.500
128.011	2.000	correct	0.328	practice a-b	scene	test	face	scene	object	29	102	102	78	206	128.000
132.510	2.000	correct	0.258	practice a-b	face	test	scene	face	object	30	36	36	260	36	132.500
137.008	2.000	correct	0.359	practice a-b	object	test	face	object	scene	31	68	68	68	120	137.000
141.507	2.000	correct	0.468	practice a-b	object	restudy	scene	object	face	32	73	73	273	125	141.500
146.022	2.000	incorrect	0.495	practice a-b	scene	restudy	scene	face	object	33	47	47	271	47	146.000
150.521	2.000	incorrect	0.289	practice a-b	object	restudy	object	face	scene	34	21	21	169	21	150.500
155.019	2.000	correct	0.266	practice a-b	scene	test	object	scene	face	35	136	136	188	240	155.000
159.518	2.000	incorrect	0.506	practice a-b	face	restudy	object	scene	face	36	139	139	191	243	159.500
164.017	2.000	incorrect	0.286	practice a-b	face	test	face	scene	object	37	110	110	86	214	164.000
168.515	2.000	correct	0.331	practice a-b	object	restudy	face	object	scene	38	71	71	71	123	168.500
173.014	2.000	incorrect	0.738	practice a-b	scene	test	scene	face	object	39	32	32	256	32	173.000
177.513	2.000	correct	0.404	practice a-b	object	restudy	scene	object	face	40	95	95	295	147	177.500
182.011	2.000	correct	0.593	practice a-b	scene	test	face	scene	object	41	108	108	84	212	182.000
186.510	2.000	incorrect	0.345	practice a-b	face	test	face	object	scene	42	64	64	64	116	186.500
191.008	2.000	correct	0.431	practice a-b	scene	restudy	object	scene	face	43	123	123	175	227	191.000
195.507	2.000	incorrect	0.326	practice a-b	object	test	object	face	scene	44	22	22	170	22	195.500
200.022	2.000	incorrect	0.758	practice a-b	face	test	scene	object	face	45	96	96	296	148	200.000
204.521	2.000	incorrect	0.350	practice a-b	object	restudy	scene	face	object	46	33	33	257	33	204.500
209.020	2.000	incorrect	0.634	practice a-b	scene	test	scene	face	object	47	28	28	252	28	209.000
213.518	2.000	incorrect	0.299	practice a-b	face	test	object	scene	face	48	126	126	178	230	213.500
218.017	2.000	incorrect	0.524	practice a-b	object	test	object	scene	face	49	134	134	186	238	218.000
222.515	2.000	correct	0.584	practice a-b	scene	restudy	face	scene	object	50	101	101	77	205	222.500
227.014	2.000	incorrect	0.505	practice a-b	object	test	object	scene	face	51	128	128	180	232	227.000
231.513	2.000	correct	0.281	practice a-b	face	test	scene	face	object	52	44	44	268	44	231.500
236.011	2.000	incorrect	0.585	practice a-b	object	test	face	scene	object	53	114	114	90	218	236.000
240.510	2.000	correct	0.272	practice a-b	scene	restudy	object	scene	face	54	127	127	179	231	240.500
245.009	2.000	correct	0.560	practice a-b	object	test	face	object	scene	55	62	62	62	114	245.000
249.507	2.000	incorrect	0.668	practice a-b	face	test	scene	object	face	56	88	88	288	140	249.500
254.022	2.000	correct	0.256	practice a-b	scene	restudy	object	scene	face	57	131	131	183	235	254.000
258.521	2.000	correct	0.344	practice a-b	object	restudy	scene	object	face	58	91	91	291	143	258.500
263.020	2.000	incorrect	0.443	practice a-b	face	test	object	scene	face	59	140	140	192	244	263.000
267.518	2.000	incorrect	0.352	practice a-b	scene	test	scene	object	face	60	78	78	278	130	267.500
272.017	2.000	incorrect	0.503	practice a-b	scene	restudy	object	face	scene	61	15	15	163	15	272.000
276.516	2.000	incorrect	0.376	practice a-b	face	test	scene	object	face	62	76	76	276	128	276.500
281.014	2.000	no response	n/a	practice a-b	no response	test	face	object	scene	63	72	72	72	124	281.000
285.513	2.000	correct	0.259	practice a-b	scene	test	face	scene	object	64	112	112	88	216	285.500
290.012	2.000	correct	0.478	practice a-b	scene	restudy	object	scene	face	65	129	129	181	233	290.000
294.510	2.000	correct	0.415	practice a-b	object	test	scene	object	face	66	86	86	286	138	294.500
299.009	2.000	incorrect	0.754	practice a-b	scene	restudy	scene	object	face	67	87	87	287	139	299.000
303.507	2.000	correct	0.241	practice a-b	face	test	object	face	scene	68	4	4	152	4	303.500
308.023	2.000	incorrect	0.263	practice a-b	object	restudy	face	scene	object	69	107	107	83	211	308.000
312.521	2.000	no response	n/a	practice a-b	no response	restudy	scene	face	object	70	29	29	253	29	312.500
317.020	2.000	incorrect	0.440	practice a-b	object	restudy	object	scene	face	71	135	135	187	239	317.000
321.519	2.000	incorrect	0.339	practice a-b	scene	restudy	scene	object	face	72	89	89	289	141	321.500
326.017	2.000	correct	0.274	practice a-b	face	restudy	object	face	scene	73	23	23	171	23	326.000
330.516	2.000	incorrect	0.245	practice a-b	scene	restudy	face	object	scene	74	51	51	51	103	330.500
335.014	2.000	correct	0.221	practice a-b	scene	restudy	face	scene	object	75	111	111	87	215	335.000
339.513	2.000	incorrect	0.329	practice a-b	object	restudy	face	scene	object	76	109	109	85	213	339.500
344.012	2.000	incorrect	0.257	practice a-b	object	test	object	face	scene	77	16	16	164	16	344.000
348.510	2.000	incorrect	0.261	practice a-b	scene	restudy	scene	face	object	78	43	43	267	43	348.500
353.009	2.000	correct	0.282	practice a-b	face	test	object	face	scene	79	14	14	162	14	353.000
357.508	2.000	incorrect	0.296	practice a-b	scene	test	scene	object	face	80	94	94	294	146	357.500
362.006	2.000	correct	0.307	practice a-b	face	restudy	scene	face	object	81	37	37	261	37	362.000
366.521	2.000	correct	0.356	practice a-b	face	test	object	face	scene	82	24	24	172	24	366.500
371.020	2.000	correct	0.281	practice a-b	scene	restudy	face	scene	object	83	115	115	91	219	371.000
375.519	2.000	correct	0.296	practice a-b	object	restudy	face	object	scene	84	69	69	69	121	375.500
380.017	2.000	incorrect	0.009	practice a-b	scene	restudy	scene	object	face	85	75	75	275	127	380.000
384.516	2.000	correct	0.323	practice a-b	face	restudy	scene	face	object	86	41	41	265	41	384.500
389.015	2.000	incorrect	0.258	practice a-b	scene	test	scene	face	object	87	46	46	270	46	389.000
393.513	2.000	incorrect	0.316	practice a-b	object	restudy	face	scene	object	88	103	103	79	207	393.500
398.012	2.000	incorrect	0.313	practice a-b	scene	restudy	face	object	scene	89	57	57	57	109	398.000
402.510	2.000	correct	0.447	practice a-b	object	test	scene	object	face	90	82	82	282	134	402.500
407.009	2.000	correct	0.264	practice a-b	face	test	scene	face	object	91	40	40	264	40	407.000
411.508	2.000	correct	0.380	practice a-b	scene	test	object	scene	face	92	144	144	196	248	411.500
416.006	2.000	incorrect	0.546	practice a-b	object	test	face	scene	object	93	116	116	92	220	416.000
420.522	2.000	correct	0.465	practice a-b	scene	test	face	scene	object	94	104	104	80	208	420.500
425.020	2.000	correct	0.470	practice a-b	scene	restudy	face	scene	object	95	97	97	73	201	425.000
429.519	2.000	incorrect	0.247	practice a-b	object	restudy	object	face	scene	96	17	17	165	17	429.500
434.017	2.000	correct	0.278	practice a-b	face	test	scene	face	object	97	38	38	262	38	434.000
438.516	2.000	incorrect	0.315	practice a-b	face	test	object	scene	face	98	124	124	176	228	438.500
443.015	2.000	incorrect	0.328	practice a-b	face	restudy	face	scene	object	99	117	117	93	221	443.000
447.513	2.000	correct	0.324	practice a-b	object	restudy	face	object	scene	100	59	59	59	111	447.500
452.012	2.000	incorrect	0.391	practice a-b	object	test	object	face	scene	101	20	20	168	20	452.000
456.511	2.000	incorrect	0.384	practice a-b	scene	test	object	face	scene	102	8	8	156	8	456.500
461.009	2.000	incorrect	0.445	practice a-b	face	test	scene	object	face	103	80	80	280	132	461.000
465.508	2.000	correct	0.385	practice a-b	object	test	face	object	scene	104	66	66	66	118	465.500
470.006	2.000	correct	0.590	practice a-b	face	test	object	face	scene	105	12	12	160	12	470.000
474.522	2.000	correct	0.344	practice a-b	scene	restudy	object	scene	face	106	141	141	193	245	474.500
479.020	2.000	correct	0.303	practice a-b	object	test	face	object	scene	107	70	70	70	122	479.000
483.519	2.000	correct	0.144	practice a-b	face	test	scene	face	object	108	30	30	254	30	483.500
488.018	2.000	correct	0.260	practice a-b	scene	restudy	object	scene	face	109	137	137	189	241	488.000
492.516	2.000	correct	0.270	practice a-b	face	restudy	scene	face	object	110	35	35	259	35	492.500
497.015	2.000	correct	0.228	practice a-b	face	test	scene	face	object	111	26	26	250	26	497.000
501.514	2.000	incorrect	0.252	practice a-b	scene	test	object	face	scene	112	18	18	166	18	501.500
506.012	2.000	correct	0.376	practice a-b	object	restudy	scene	object	face	113	83	83	283	135	506.000
510.511	2.000	correct	0.500	practice a-b	face	test	scene	face	object	114	48	48	272	48	510.500
515.009	2.000	correct	0.012	practice a-b	scene	test	face	scene	object	115	100	100	76	204	515.000
519.508	2.000	incorrect	0.320	practice a-b	object	restudy	face	scene	object	116	119	119	95	223	519.500
524.007	2.000	correct	0.700	practice a-b	scene	test	face	scene	object	117	98	98	74	202	524.000
528.522	2.000	correct	0.285	practice a-b	face	restudy	object	face	scene	118	1	1	149	1	528.500
533.021	2.000	correct	0.332	practice a-b	object	restudy	scene	object	face	119	85	85	285	137	533.000
537.519	2.000	incorrect	0.348	practice a-b	scene	test	face	object	scene	120	60	60	60	112	537.500
542.018	2.000	correct	0.291	practice a-b	face	test	object	face	scene	121	6	6	154	6	542.000
546.516	2.000	incorrect	0.355	practice a-b	face	test	object	scene	face	122	130	130	182	234	546.500
551.015	2.000	incorrect	0.560	practice a-b	object	test	object	scene	face	123	132	132	184	236	551.000
555.514	2.000	correct	0.391	practice a-b	object	restudy	scene	object	face	124	77	77	277	129	555.500
560.012	2.000	correct	0.562	practice a-b	scene	restudy	object	scene	face	125	125	125	177	229	560.000
564.511	2.000	incorrect	0.450	practice a-b	scene	test	face	object	scene	126	56	56	56	108	564.500
569.009	2.000	correct	0.304	practice a-b	scene	restudy	object	scene	face	127	121	121	173	225	569.000
573.508	2.000	correct	0.416	practice a-b	object	restudy	face	object	scene	128	49	49	49	101	573.500
578.007	2.000	correct	0.402	practice a-b	scene	test	face	scene	object	129	120	120	96	224	578.000
582.522	2.000	correct	0.394	practice a-b	face	restudy	object	face	scene	130	9	9	157	9	582.500
587.021	2.000	incorrect	0.811	practice a-b	object	restudy	scene	face	object	131	31	31	255	31	587.000
591.519	2.000	incorrect	0.342	practice a-b	face	restudy	scene	object	face	132	79	79	279	131	591.500
596.018	2.000	correct	0.623	practice a-b	scene	test	object	scene	face	133	138	138	190	242	596.000
600.517	2.000	correct	0.271	practice a-b	object	restudy	scene	object	face	134	81	81	281	133	600.500
605.015	2.000	correct	0.293	practice a-b	scene	test	object	scene	face	135	142	142	194	246	605.000
609.514	2.000	correct	0.381	practice a-b	face	test	scene	face	object	136	34	34	258	34	609.500
614.012	2.000	correct	0.407	practice a-b	scene	test	face	scene	object	137	118	118	94	222	614.000
618.511	2.000	incorrect	0.266	practice a-b	object	restudy	face	scene	object	138	113	113	89	217	618.500
623.010	2.000	incorrect	0.614	practice a-b	object	restudy	scene	face	object	139	45	45	269	45	623.000
627.525	2.000	correct	0.314	practice a-b	face	test	object	face	scene	140	2	2	150	2	627.500
632.007	2.000	incorrect	0.412	practice a-b	object	restudy	face	scene	object	141	99	99	75	203	632.000
636.522	2.000	incorrect	0.503	practice a-b	object	restudy	object	face	scene	142	13	13	161	13	636.500
641.021	2.000	incorrect	0.374	practice a-b	scene	test	face	object	scene	143	58	58	58	110	641.000
645.519	2.000	incorrect	0.328	practice a-b	scene	restudy	object	face	scene	144	11	11	159	11	645.500
2.015	2.000	incorrect	0.293	practice a-b	scene	restudy	face	object	scene	145	57	57	57	109	2.000
6.514	2.000	don't know	0.698	practice a-b	don't know	restudy	object	face	scene	146	15	15	163	15	6.500
11.013	2.000	correct	0.386	practice a-b	face	restudy	object	face	scene	147	17	17	165	17	11.000
15.511	2.000	correct	0.455	practice a-b	scene	test	object	scene	face	148	126	126	178	230	15.500
20.010	2.000	incorrect	0.502	practice a-b	object	restudy	face	scene	object	149	103	103	79	207	20.000
24.508	2.000	correct	0.369	practice a-b	face	restudy	object	face	scene	150	21	21	169	21	24.500
29.024	2.000	incorrect	0.310	practice a-b	object	test	object	face	scene	151	22	22	170	22	29.000
33.522	2.000	correct	0.417	practice a-b	face	test	object	face	scene	152	20	20	168	20	33.500
38.021	2.000	correct	0.633	practice a-b	object	test	face	object	scene	153	54	54	54	106	38.000
42.520	2.000	correct	0.327	practice a-b	scene	restudy	face	scene	object	154	119	119	95	223	42.500
47.018	2.000	correct	0.373	practice a-b	face	test	scene	face	object	155	46	46	270	46	47.000
51.517	2.000	incorrect	0.857	practice a-b	scene	restudy	scene	face	object	156	29	29	253	29	51.500
56.015	2.000	incorrect	0.649	practice a-b	object	test	object	scene	face	157	128	128	180	232	56.000
60.514	2.000	incorrect	0.507	practice a-b	scene	test	scene	object	face	158	84	84	284	136	60.500
65.013	2.000	correct	0.497	practice a-b	face	restudy	scene	face	object	159	31	31	255	31	65.000
69.511	2.000	incorrect	0.506	practice a-b	object	restudy	object	face	scene	160	5	5	153	5	69.500
74.010	2.000	incorrect	0.288	practice a-b	scene	restudy	face	object	scene	161	61	61	61	113	74.000
78.509	2.000	correct	0.359	practice a-b	scene	test	object	scene	face	162	132	132	184	236	78.500
83.007	2.000	incorrect	0.183	practice a-b	face	test	face	scene	object	163	106	106	82	210	83.000
87.522	2.000	incorrect	0.096	practice a-b	scene	test	scene	object	face	164	76	76	276	128	87.500
92.021	2.000	correct	0.338	practice a-b	face	test	object	face	scene	165	8	8	156	8	92.000
96.520	2.000	correct	0.315	practice a-b	scene	restudy	face	scene	object	166	99	99	75	203	96.500
101.018	2.000	correct	0.302	practice a-b	object	test	face	object	scene	167	60	60	60	112	101.000
105.517	2.000	correct	0.274	practice a-b	object	restudy	face	object	scene	168	53	53	53	105	105.500
110.015	2.000	incorrect	0.371	practice a-b	scene	test	scene	object	face	169	74	74	274	126	110.000
114.514	2.000	incorrect	0.399	practice a-b	object	restudy	scene	face	object	170	47	47	271	47	114.500
119.013	2.000	correct	0.294	practice a-b	object	restudy	face	object	scene	171	63	63	63	115	119.000
123.511	2.000	correct	0.292	practice a-b	scene	restudy	face	scene	object	172	117	117	93	221	123.500
128.010	2.000	incorrect	0.450	practice a-b	object	restudy	face	scene	object	173	109	109	85	213	128.000
132.509	2.000	correct	0.268	practice a-b	face	restudy	object	face	scene	174	3	3	151	3	132.500
137.007	2.000	incorrect	0.365	practice a-b	scene	test	face	object	scene	175	72	72	72	124	137.000
141.523	2.000	incorrect	0.383	practice a-b	object	restudy	scene	face	object	176	33	33	257	33	141.500
146.021	2.000	incorrect	0.445	practice a-b	object	restudy	object	face	scene	177	11	11	159	11	146.000
150.520	2.000	correct	0.308	practice a-b	scene	test	face	scene	object	178	110	110	86	214	150.500
155.018	2.000	correct	0.242	practice a-b	object	restudy	face	object	scene	179	55	55	55	107	155.000
159.517	2.000	incorrect	0.307	practice a-b	scene	test	scene	object	face	180	88	88	288	140	159.500
164.016	2.000	correct	0.336	practice a-b	object	test	face	object	scene	181	58	58	58	110	164.000
168.514	2.000	correct	0.311	practice a-b	face	test	object	face	scene	182	16	16	164	16	168.500
173.013	2.000	incorrect	0.397	practice a-b	scene	test	scene	object	face	183	80	80	280	132	173.000
177.512	2.000	incorrect	0.654	practice a-b	scene	test	scene	object	face	184	78	78	278	130	177.500
182.010	2.000	incorrect	0.278	practice a-b	face	test	object	scene	face	185	130	130	182	234	182.000
186.509	2.000	correct	0.464	practice a-b	face	restudy	object	face	scene	186	7	7	155	7	186.500
191.007	2.000	correct	0.380	practice a-b	object	test	scene	object	face	187	94	94	294	146	191.000
195.506	2.000	correct	0.306	practice a-b	scene	restudy	object	scene	face	188	139	139	191	243	195.500
200.021	2.000	incorrect	0.502	practice a-b	object	test	object	scene	face	189	124	124	176	228	200.000
204.520	2.000	correct	0.284	practice a-b	scene	test	object	scene	face	190	140	140	192	244	204.500
209.019	2.000	correct	0.438	practice a-b	face	restudy	object	face	scene	191	19	19	167	19	209.000
213.517	2.000	correct	0.298	practice a-b	object	test	scene	object	face	192	96	96	296	148	213.500
218.016	2.000	correct	0.301	practice a-b	scene	restudy	face	scene	object	193	105	105	81	209	218.000
222.514	2.000	incorrect	0.352	practice a-b	object	restudy	scene	face	object	194	43	43	267	43	222.500
227.013	2.000	incorrect	0.338	practice a-b	face	test	face	object	scene	195	56	56	56	108	227.000
231.512	2.000	incorrect	0.284	practice a-b	object	test	scene	face	object	196	42	42	266	42	231.500
236.010	2.000	incorrect	0.296	practice a-b	scene	test	scene	face	object	197	28	28	252	28	236.000
240.509	2.000	incorrect	0.346	practice a-b	object	restudy	scene	face	object	198	27	27	251	27	240.500
245.008	2.000	correct	0.285	practice a-b	scene	test	face	scene	object	199	114	114	90	218	245.000
249.506	2.000	incorrect	0.271	practice a-b	face	test	face	object	scene	200	64	64	64	116	249.500
254.022	2.000	correct	0.396	practice a-b	object	restudy	scene	object	face	201	89	89	289	141	254.000
258.520	2.000	correct	0.290	practice a-b	scene	test	face	scene	object	202	116	116	92	220	258.500
263.019	2.000	incorrect	0.292	practice a-b	face	restudy	face	object	scene	203	51	51	51	103	263.000
267.517	2.000	correct	0.435	practice a-b	scene	restudy	object	scene	face	204	143	143	195	247	267.500
272.016	2.000	incorrect	0.275	practice a-b	face	restudy	scene	object	face	205	87	87	287	139	272.000
276.515	2.000	correct	0.286	practice a-b	scene	restudy	face	scene	object	206	113	113	89	217	276.500
281.013	2.000	incorrect	0.322	practice a-b	object	restudy	object	face	scene	207	13	13	161	13	281.000
285.512	2.000	incorrect	0.493	practice a-b	scene	restudy	face	object	scene	208	67	67	67	119	285.500
290.010	2.000	correct	0.256	practice a-b	scene	restudy	object	scene	face	209	135	135	187	239	290.000
294.509	2.000	correct	0.268	practice a-b	scene	test	object	scene	face	210	134	134	186	238	294.500
299.008	2.000	incorrect	0.312	practice a-b	face	restudy	scene	object	face	211	79	79	279	131	299.000
303.506	2.000	correct	0.260	practice a-b	face	test	object	face	scene	212	18	18	166	18	303.500
308.022	2.000	correct	0.282	practice a-b	scene	restudy	face	scene	object	213	107	107	83	211	308.000
312.520	2.000	incorrect	0.348	practice a-b	object	test	object	face	scene	214	10	10	158	10	312.500
317.019	2.000	incorrect	0.667	practice a-b	object	test	scene	face	object	215	32	32	256	32	317.000
321.518	2.000	correct	0.444	practice a-b	object	restudy	scene	object	face	216	75	75	275	127	321.500
326.016	2.000	correct	0.525	practice a-b	object	restudy	face	object	scene	217	65	65	65	117	326.000
330.515	2.000	incorrect	0.445	practice a-b	object	restudy	scene	face	object	218	45	45	269	45	330.500
2.022	2.000	correct	0.710	practice a-b	object	test	scene	object	face	219	78	78	278	130	2.000
6.521	2.000	incorrect	0.295	practice a-b	scene	restudy	scene	face	object	220	27	27	251	27	6.500
11.019	2.000	correct	0.530	practice a-b	object	restudy	face	object	scene	221	61	61	61	113	11.000
15.518	2.000	correct	0.276	practice a-b	scene	restudy	face	scene	object	222	103	103	79	207	15.500
20.017	2.000	incorrect	0.421	practice a-b	object	test	object	scene	face	223	128	128	180	232	20.000
24.515	2.000	correct	0.315	practice a-b	face	restudy	scene	face	object	224	45	45	269	45	24.500
29.014	2.000	incorrect	0.350	practice a-b	face	test	face	object	scene	225	64	64	64	116	29.000
33.513	2.000	correct	0.492	practice a-b	scene	test	face	scene	object	226	106	106	82	210	33.500
38.011	2.000	correct	0.380	practice a-b	object	restudy	scene	object	face	227	79	79	279	131	38.000
42.510	2.000	incorrect	0.453	practice a-b	object	test	scene	face	object	228	32	32	256	32	42.500
47.008	2.000	incorrect	0.515	practice a-b	object	restudy	object	face	scene	229	15	15	163	15	47.000
51.507	2.000	incorrect	0.488	practice a-b	object	test	object	face	scene	230	22	22	170	22	51.500
56.022	2.000	incorrect	0.426	practice a-b	scene	test	scene	object	face	231	80	80	280	132	56.000
60.521	2.000	incorrect	0.289	practice a-b	scene	test	scene	object	face	232	76	76	276	128	60.500
65.020	2.000	incorrect	0.274	practice a-b	scene	restudy	object	face	scene	233	11	11	159	11	65.000
69.518	2.000	incorrect	0.294	practice a-b	face	restudy	scene	object	face	234	87	87	287	139	69.500
74.017	2.000	incorrect	0.011	practice a-b	object	test	scene	face	object	235	42	42	266	42	74.000
78.516	2.000	incorrect	0.227	practice a-b	scene	test	scene	face	object	236	28	28	252	28	78.500
83.014	2.000	incorrect	0.291	practice a-b	object	restudy	scene	face	object	237	29	29	253	29	83.000
87.513	2.000	incorrect	0.275	practice a-b	scene	restudy	face	object	scene	238	51	51	51	103	87.500
92.011	2.000	correct	0.255	practice a-b	object	test	face	object	scene	239	72	72	72	124	92.000
96.510	2.000	correct	0.345	practice a-b	object	restudy	face	object	scene	240	57	57	57	109	96.500
101.009	2.000	incorrect	0.393	practice a-b	scene	test	scene	object	face	241	88	88	288	140	101.000
105.507	2.000	correct	0.286	practice a-b	object	test	scene	object	face	242	74	74	274	126	105.500
110.023	2.000	incorrect	0.266	practice a-b	scene	restudy	object	face	scene	243	5	5	153	5	110.000
114.521	2.000	correct	0.270	practice a-b	face	restudy	scene	face	object	244	47	47	271	47	114.500
119.020	2.000	incorrect	0.338	practice a-b	object	restudy	object	face	scene	245	13	13	161	13	119.000
123.518	2.000	correct	0.306	practice a-b	face	restudy	scene	face	object	246	33	33	257	33	123.500
128.017	2.000	incorrect	0.372	practice a-b	face	test	face	object	scene	247	56	56	56	108	128.000
132.516	2.000	incorrect	0.311	practice a-b	object	restudy	scene	face	object	248	43	43	267	43	132.500
137.014	2.000	correct	0.256	practice a-b	scene	restudy	face	scene	object	249	109	109	85	213	137.000
141.513	2.000	incorrect	0.327	practice a-b	object	test	object	face	scene	250	10	10	158	10	141.500
146.012	2.000	incorrect	0.358	practice a-b	object	test	object	scene	face	251	124	124	176	228	146.000
150.510	2.000	correct	0.288	practice a-b	object	test	scene	object	face	252	84	84	284	136	150.500
155.009	2.000	correct	0.379	practice a-b	scene	test	object	scene	face	253	130	130	182	234	155.000
159.507	2.000	correct	0.322	practice a-b	object	restudy	face	object	scene	254	67	67	67	119	159.500
2.016	2.000	incorrect	0.333	practice a-b	face	test	face	object	scene	255	64	64	64	116	2.000
6.515	2.000	correct	0.303	practice a-b	face	restudy	scene	face	object	256	29	29	253	29	6.500
11.013	2.000	incorrect	0.345	practice a-b	object	restudy	object	face	scene	257	11	11	159	11	11.000
15.512	2.000	incorrect	0.366	practice a-b	face	restudy	scene	object	face	258	87	87	287	139	15.500
20.010	2.000	incorrect	0.296	practice a-b	object	restudy	object	face	scene	259	13	13	161	13	20.000
24.509	2.000	incorrect	0.415	practice a-b	face	test	scene	object	face	260	80	80	280	132	24.500
29.008	2.000	correct	0.366	practice a-b	face	test	object	face	scene	261	22	22	170	22	29.000
33.523	2.000	correct	0.303	practice a-b	object	test	scene	object	face	262	76	76	276	128	33.500
38.022	2.000	incorrect	0.569	practice a-b	object	restudy	object	face	scene	263	5	5	153	5	38.000
42.520	2.000	incorrect	0.280	practice a-b	face	test	object	scene	face	264	124	124	176	228	42.500
47.019	2.000	incorrect	0.617	practice a-b	object	test	scene	face	object	265	32	32	256	32	47.000
51.517	2.000	correct	0.704	practice a-b	object	test	face	object	scene	266	56	56	56	108	51.500
56.016	2.000	don't know	0.307	practice a-b	don't know	restudy	face	object	scene	267	51	51	51	103	56.000
60.515	2.000	incorrect	0.230	practice a-b	face	test	object	scene	face	268	128	128	180	232	60.500
65.013	2.000	correct	0.378	practice a-b	object	test	scene	object	face	269	88	88	288	140	65.000
69.512	2.000	incorrect	0.584	practice a-b	object	restudy	object	face	scene	270	15	15	163	15	69.500
74.011	2.000	correct	0.326	practice a-b	face	test	scene	face	object	271	42	42	266	42	74.000
78.509	2.000	correct	0.284	practice a-b	face	restudy	scene	face	object	272	43	43	267	43	78.500
83.008	2.000	correct	0.621	practice a-b	face	test	object	face	scene	273	10	10	158	10	83.000
87.507	2.000	incorrect	0.320	practice a-b	object	restudy	scene	face	object	274	27	27	251	27	87.500
92.022	2.000	incorrect	0.328	practice a-b	object	test	scene	face	object	275	28	28	252	28	92.000
2.016	2.000	correct	0.398	practice a-b	face	restudy	object	face	scene	276	5	5	153	5	2.000
6.515	2.000	incorrect	0.465	practice a-b	scene	restudy	face	object	scene	277	51	51	51	103	6.500
11.013	2.000	correct	0.285	practice a-b	face	test	scene	face	object	278	32	32	256	32	11.000
15.512	2.000	incorrect	0.324	practice a-b	scene	restudy	object	face	scene	279	11	11	159	11	15.500
20.010	2.000	incorrect	0.400	practice a-b	object	restudy	scene	face	object	280	27	27	251	27	20.000
24.509	2.000	incorrect	0.335	practice a-b	object	restudy	object	face	scene	281	15	15	163	15	24.500
29.008	2.000	incorrect	0.437	practice a-b	object	restudy	object	face	scene	282	13	13	161	13	29.000
33.506	2.000	incorrect	0.356	practice a-b	object	test	object	scene	face	283	128	128	180	232	33.500
38.022	2.000	incorrect	0.342	practice a-b	face	test	face	object	scene	284	64	64	64	116	38.000
42.520	2.000	correct	0.275	practice a-b	face	test	scene	face	object	285	28	28	252	28	42.500
47.019	2.000	incorrect	0.539	practice a-b	face	test	scene	object	face	286	80	80	280	132	47.000
51.517	2.000	incorrect	0.258	practice a-b	face	restudy	scene	object	face	287	87	87	287	139	51.500
56.016	2.000	incorrect	0.282	practice a-b	face	test	object	scene	face	288	124	124	176	228	56.000
2.016	2.000	correct	0.721	practice a-b	object	restudy	face	object	scene	289	51	51	51	103	2.000
6.515	2.000	incorrect	0.503	practice a-b	face	test	face	object	scene	290	64	64	64	116	6.500
11.013	2.000	incorrect	0.371	practice a-b	object	restudy	scene	face	object	291	27	27	251	27	11.000
15.512	2.000	correct	0.276	practice a-b	face	restudy	object	face	scene	292	13	13	161	13	15.500
20.010	2.000	incorrect	0.243	practice a-b	scene	restudy	object	face	scene	293	15	15	163	15	20.000
24.509	2.000	incorrect	0.311	practice a-b	face	test	object	scene	face	294	128	128	180	232	24.500
29.008	2.000	incorrect	0.264	practice a-b	face	test	scene	object	face	295	80	80	280	132	29.000
33.506	2.000	incorrect	0.367	practice a-b	object	restudy	object	face	scene	296	11	11	159	11	33.500
38.022	2.000	incorrect	0.303	practice a-b	face	test	object	scene	face	297	124	124	176	228	38.000
42.520	2.000	incorrect	0.269	practice a-b	face	restudy	scene	object	face	298	87	87	287	139	42.500
2.016	2.000	incorrect	0.330	practice a-b	object	restudy	object	face	scene	299	11	11	159	11	2.000
6.515	2.000	incorrect	0.450	practice a-b	object	test	object	scene	face	300	124	124	176	228	6.500
11.013	2.000	correct	0.327	practice a-b	object	test	face	object	scene	301	64	64	64	116	11.000
15.512	2.000	incorrect	0.365	practice a-b	face	test	scene	object	face	302	80	80	280	132	15.500
20.010	2.000	correct	0.260	practice a-b	face	restudy	object	face	scene	303	15	15	163	15	20.000
24.509	2.000	correct	0.402	practice a-b	scene	test	object	scene	face	304	128	128	180	232	24.500
29.008	2.000	incorrect	0.321	practice a-b	scene	restudy	scene	object	face	305	87	87	287	139	29.000
33.506	2.000	incorrect	0.669	practice a-b	object	restudy	scene	face	object	306	27	27	251	27	33.500
2.016	2.000	incorrect	0.352	practice a-b	face	test	object	scene	face	307	124	124	176	228	2.000
6.515	2.000	correct	0.396	practice a-b	object	test	scene	object	face	308	80	80	280	132	6.500
11.013	2.000	correct	0.286	practice a-b	face	restudy	object	face	scene	309	11	11	159	11	11.000
15.512	2.000	correct	0.294	practice a-b	face	restudy	scene	face	object	310	27	27	251	27	15.500
20.010	2.000	incorrect	0.210	practice a-b	scene	restudy	scene	object	face	311	87	87	287	139	20.000
2.016	2.000	correct	0.008	practice a-b	object	restudy	scene	object	face	312	87	87	287	139	2.000
6.515	2.000	correct	0.335	practice a-b	scene	test	object	scene	face	313	124	124	176	228	6.500
