onset	duration	trial_type	response_time	task_type	response_type	trial_id	run_id	block_id	word_id	img_id	design_onset	grate_orientation
2.021	2.000	face	2.267	localizer	weak unrelated	1	1	1	1	1	2.0	n/a
6.021	2.000	face	2.187	localizer	weak related	2	1	1	2	2	6.0	n/a
10.020	2.000	face	1.555	localizer	strong unrelated	3	1	1	3	3	10.0	n/a
14.020	2.000	face	1.988	localizer	strong unrelated	4	1	1	4	4	14.0	n/a
18.019	2.000	face	2.347	localizer	strong unrelated	5	1	1	5	5	18.0	n/a
22.019	2.000	face	1.315	localizer	strong related	6	1	1	6	6	22.0	n/a
26.057	1.081	correct	1.081	grate	n/a	6	1	n/a	n/a	n/a	n/a	right
27.654	0.348	correct	0.348	grate	n/a	6	1	n/a	n/a	n/a	n/a	left
28.519	0.379	correct	0.379	grate	n/a	6	1	n/a	n/a	n/a	n/a	right
29.419	0.391	correct	0.391	grate	n/a	6	1	n/a	n/a	n/a	n/a	right
30.319	0.555	correct	0.555	grate	n/a	6	1	n/a	n/a	n/a	n/a	left
31.386	0.361	correct	0.361	grate	n/a	6	1	n/a	n/a	n/a	n/a	left
32.269	0.413	correct	0.413	grate	n/a	6	1	n/a	n/a	n/a	n/a	right
33.202	0.592	correct	0.592	grate	n/a	6	1	n/a	n/a	n/a	n/a	left
34.319	0.467	correct	0.467	grate	n/a	6	1	n/a	n/a	n/a	n/a	right
35.302	0.404	correct	0.404	grate	n/a	6	1	n/a	n/a	n/a	n/a	left
36.219	0.333	incorrect	0.333	grate	n/a	6	1	n/a	n/a	n/a	n/a	right
38.017	2.000	object	1.189	localizer	strong unrelated	7	1	2	73	101	38.0	n/a
42.017	2.000	object	2.025	localizer	strong related	8	1	2	74	102	42.0	n/a
46.017	2.000	object	1.093	localizer	strong related	9	1	2	75	103	46.0	n/a
50.016	2.000	object	1.165	localizer	weak related	10	1	2	76	104	50.0	n/a
54.016	2.000	object	1.077	localizer	strong unrelated	11	1	2	77	105	54.0	n/a
58.015	2.000	object	1.510	localizer	weak unrelated	12	1	2	78	106	58.0	n/a
62.054	0.747	correct	0.747	grate	n/a	12	1	n/a	n/a	n/a	n/a	left
63.316	0.421	correct	0.421	grate	n/a	12	1	n/a	n/a	n/a	n/a	left
64.249	0.344	correct	0.344	grate	n/a	12	1	n/a	n/a	n/a	n/a	left
65.116	0.381	correct	0.381	grate	n/a	12	1	n/a	n/a	n/a	n/a	left
66.016	0.385	correct	0.385	grate	n/a	12	1	n/a	n/a	n/a	n/a	left
66.915	0.389	correct	0.389	grate	n/a	12	1	n/a	n/a	n/a	n/a	right
67.815	0.441	correct	0.441	grate	n/a	12	1	n/a	n/a	n/a	n/a	right
68.765	0.459	correct	0.459	grate	n/a	12	1	n/a	n/a	n/a	n/a	left
69.732	0.397	correct	0.397	grate	n/a	12	1	n/a	n/a	n/a	n/a	right
70.648	0.368	correct	0.368	grate	n/a	12	1	n/a	n/a	n/a	n/a	right
71.532	0.357	correct	0.357	grate	n/a	12	1	n/a	n/a	n/a	n/a	right
72.398	0.150	incorrect	0.150	grate	n/a	12	1	n/a	n/a	n/a	n/a	left
74.014	2.000	scene	1.343	localizer	strong related	13	1	3	145	201	74.0	n/a
78.013	2.000	scene	0.928	localizer	strong related	14	1	3	146	202	78.0	n/a
82.013	2.000	scene	0.927	localizer	strong related	15	1	3	147	203	82.0	n/a
86.013	2.000	scene	1.111	localizer	weak unrelated	16	1	3	148	204	86.0	n/a
90.012	2.000	scene	1.680	localizer	weak unrelated	17	1	3	149	205	90.0	n/a
94.012	2.000	scene	1.048	localizer	strong related	18	1	3	150	206	94.0	n/a
98.050	0.613	correct	0.613	grate	n/a	18	1	n/a	n/a	n/a	n/a	right
99.180	0.372	correct	0.372	grate	n/a	18	1	n/a	n/a	n/a	n/a	right
100.062	0.473	correct	0.473	grate	n/a	18	1	n/a	n/a	n/a	n/a	left
101.045	0.322	correct	0.322	grate	n/a	18	1	n/a	n/a	n/a	n/a	left
101.878	0.401	correct	0.401	grate	n/a	18	1	n/a	n/a	n/a	n/a	right
102.795	0.404	correct	0.404	grate	n/a	18	1	n/a	n/a	n/a	n/a	left
103.712	0.328	correct	0.328	grate	n/a	18	1	n/a	n/a	n/a	n/a	right
104.562	0.397	correct	0.397	grate	n/a	18	1	n/a	n/a	n/a	n/a	right
105.478	0.474	correct	0.474	grate	n/a	18	1	n/a	n/a	n/a	n/a	right
106.461	0.514	correct	0.514	grate	n/a	18	1	n/a	n/a	n/a	n/a	left
107.495	0.441	correct	0.441	grate	n/a	18	1	n/a	n/a	n/a	n/a	left
108.444	0.100	incorrect	0.100	grate	n/a	18	1	n/a	n/a	n/a	n/a	left
110.010	2.000	object	0.961	localizer	strong related	19	1	4	79	107	110.0	n/a
114.010	2.000	object	0.849	localizer	strong related	20	1	4	80	108	114.0	n/a
118.026	2.000	object	0.914	localizer	weak unrelated	21	1	4	81	109	118.0	n/a
122.009	2.000	object	0.754	localizer	strong related	22	1	4	82	110	122.0	n/a
126.008	2.000	object	0.690	localizer	weak related	23	1	4	83	111	126.0	n/a
130.025	2.000	object	1.153	localizer	strong related	24	1	4	84	112	130.0	n/a
134.064	0.526	correct	0.526	grate	n/a	24	1	n/a	n/a	n/a	n/a	right
135.109	0.377	correct	0.377	grate	n/a	24	1	n/a	n/a	n/a	n/a	right
136.008	0.390	correct	0.390	grate	n/a	24	1	n/a	n/a	n/a	n/a	left
136.908	0.394	correct	0.394	grate	n/a	24	1	n/a	n/a	n/a	n/a	right
137.825	0.541	correct	0.541	grate	n/a	24	1	n/a	n/a	n/a	n/a	left
138.874	0.451	correct	0.451	grate	n/a	24	1	n/a	n/a	n/a	n/a	right
139.841	0.404	correct	0.404	grate	n/a	24	1	n/a	n/a	n/a	n/a	left
140.758	0.376	correct	0.376	grate	n/a	24	1	n/a	n/a	n/a	n/a	left
141.641	0.348	correct	0.348	grate	n/a	24	1	n/a	n/a	n/a	n/a	left
142.508	0.346	correct	0.346	grate	n/a	24	1	n/a	n/a	n/a	n/a	left
143.374	0.335	correct	0.335	grate	n/a	24	1	n/a	n/a	n/a	n/a	left
144.224	0.333	incorrect	0.333	grate	n/a	24	1	n/a	n/a	n/a	n/a	right
146.023	2.000	scene	1.506	localizer	strong related	25	1	5	151	207	146.0	n/a
150.023	2.000	scene	1.291	localizer	weak related	26	1	5	152	208	150.0	n/a
154.022	2.000	scene	1.075	localizer	weak related	27	1	5	153	209	154.0	n/a
158.022	2.000	scene	1.891	localizer	weak unrelated	28	1	5	154	210	158.0	n/a
162.021	2.000	scene	1.843	localizer	weak related	29	1	5	155	211	162.0	n/a
166.021	2.000	scene	0.939	localizer	strong related	30	1	5	156	212	166.0	n/a
170.060	0.512	correct	0.512	grate	n/a	30	1	n/a	n/a	n/a	n/a	left
171.089	0.468	correct	0.468	grate	n/a	30	1	n/a	n/a	n/a	n/a	right
172.071	0.389	correct	0.389	grate	n/a	30	1	n/a	n/a	n/a	n/a	right
172.971	0.434	correct	0.434	grate	n/a	30	1	n/a	n/a	n/a	n/a	left
173.921	0.388	correct	0.388	grate	n/a	30	1	n/a	n/a	n/a	n/a	right
174.821	0.439	correct	0.439	grate	n/a	30	1	n/a	n/a	n/a	n/a	right
175.771	0.505	correct	0.505	grate	n/a	30	1	n/a	n/a	n/a	n/a	right
176.788	0.392	correct	0.392	grate	n/a	30	1	n/a	n/a	n/a	n/a	right
177.704	0.540	correct	0.540	grate	n/a	30	1	n/a	n/a	n/a	n/a	left
178.754	0.506	correct	0.506	grate	n/a	30	1	n/a	n/a	n/a	n/a	right
179.770	0.377	correct	0.377	grate	n/a	30	1	n/a	n/a	n/a	n/a	right
180.671	0.100	incorrect	0.100	grate	n/a	30	1	n/a	n/a	n/a	n/a	left
182.019	2.000	face	1.204	localizer	strong related	31	1	6	7	7	182.0	n/a
186.019	2.000	face	1.261	localizer	weak unrelated	32	1	6	8	8	186.0	n/a
190.019	2.000	face	1.261	localizer	weak unrelated	33	1	6	9	9	190.0	n/a
194.018	2.000	face	1.325	localizer	strong unrelated	34	1	6	10	10	194.0	n/a
198.018	2.000	face	1.837	localizer	weak unrelated	35	1	6	11	11	198.0	n/a
202.017	2.000	face	1.422	localizer	strong related	36	1	6	12	12	202.0	n/a
206.057	0.418	correct	0.418	grate	n/a	36	1	n/a	n/a	n/a	n/a	right
206.985	0.402	correct	0.402	grate	n/a	36	1	n/a	n/a	n/a	n/a	right
207.901	0.390	correct	0.390	grate	n/a	36	1	n/a	n/a	n/a	n/a	left
208.801	0.410	correct	0.410	grate	n/a	36	1	n/a	n/a	n/a	n/a	right
209.734	0.349	correct	0.349	grate	n/a	36	1	n/a	n/a	n/a	n/a	right
210.601	0.370	correct	0.370	grate	n/a	36	1	n/a	n/a	n/a	n/a	left
211.484	0.359	correct	0.359	grate	n/a	36	1	n/a	n/a	n/a	n/a	left
212.351	0.372	correct	0.372	grate	n/a	36	1	n/a	n/a	n/a	n/a	right
213.234	0.385	correct	0.385	grate	n/a	36	1	n/a	n/a	n/a	n/a	left
214.134	0.357	correct	0.357	grate	n/a	36	1	n/a	n/a	n/a	n/a	right
215.000	0.387	correct	0.387	grate	n/a	36	1	n/a	n/a	n/a	n/a	left
215.900	0.351	correct	0.351	grate	n/a	36	1	n/a	n/a	n/a	n/a	left
216.767	0.100	incorrect	0.100	grate	n/a	36	1	n/a	n/a	n/a	n/a	left
218.016	2.000	scene	1.111	localizer	strong related	37	1	7	157	213	218.0	n/a
222.015	2.000	scene	1.455	localizer	weak unrelated	38	1	7	158	214	222.0	n/a
226.015	2.000	scene	0.840	localizer	weak related	39	1	7	159	215	226.0	n/a
230.014	2.000	scene	1.639	localizer	weak unrelated	40	1	7	160	216	230.0	n/a
234.014	2.000	scene	1.368	localizer	weak unrelated	41	1	7	161	217	234.0	n/a
238.014	2.000	scene	0.944	localizer	strong related	42	1	7	162	218	238.0	n/a
242.052	0.685	correct	0.685	grate	n/a	42	1	n/a	n/a	n/a	n/a	left
243.248	0.329	correct	0.329	grate	n/a	42	1	n/a	n/a	n/a	n/a	right
244.097	0.384	correct	0.384	grate	n/a	42	1	n/a	n/a	n/a	n/a	left
244.997	0.468	correct	0.468	grate	n/a	42	1	n/a	n/a	n/a	n/a	left
245.981	0.389	correct	0.389	grate	n/a	42	1	n/a	n/a	n/a	n/a	left
246.880	0.353	correct	0.353	grate	n/a	42	1	n/a	n/a	n/a	n/a	left
247.747	0.423	correct	0.423	grate	n/a	42	1	n/a	n/a	n/a	n/a	left
248.680	0.401	correct	0.401	grate	n/a	42	1	n/a	n/a	n/a	n/a	right
249.597	0.412	correct	0.412	grate	n/a	42	1	n/a	n/a	n/a	n/a	left
250.530	0.383	correct	0.383	grate	n/a	42	1	n/a	n/a	n/a	n/a	right
251.430	0.387	correct	0.387	grate	n/a	42	1	n/a	n/a	n/a	n/a	right
252.330	0.217	incorrect	0.217	grate	n/a	42	1	n/a	n/a	n/a	n/a	right
254.012	2.000	face	2.201	localizer	strong unrelated	43	1	8	13	13	254.0	n/a
258.012	2.000	face	1.513	localizer	weak unrelated	44	1	8	14	14	258.0	n/a
262.028	2.000	face	1.001	localizer	strong related	45	1	8	15	15	262.0	n/a
266.011	2.000	face	1.153	localizer	weak unrelated	46	1	8	16	16	266.0	n/a
270.010	2.000	face	1.258	localizer	strong related	47	1	8	17	17	270.0	n/a
274.010	2.000	face	1.130	localizer	strong unrelated	48	1	8	18	18	274.0	n/a
278.049	0.671	correct	0.671	grate	n/a	48	1	n/a	n/a	n/a	n/a	right
279.228	0.388	correct	0.388	grate	n/a	48	1	n/a	n/a	n/a	n/a	right
280.127	0.377	correct	0.377	grate	n/a	48	1	n/a	n/a	n/a	n/a	left
281.027	0.341	correct	0.341	grate	n/a	48	1	n/a	n/a	n/a	n/a	left
281.877	0.347	correct	0.347	grate	n/a	48	1	n/a	n/a	n/a	n/a	left
282.743	0.408	correct	0.408	grate	n/a	48	1	n/a	n/a	n/a	n/a	right
283.660	0.340	correct	0.340	grate	n/a	48	1	n/a	n/a	n/a	n/a	right
284.510	0.386	correct	0.386	grate	n/a	48	1	n/a	n/a	n/a	n/a	left
285.410	0.366	correct	0.366	grate	n/a	48	1	n/a	n/a	n/a	n/a	left
286.293	0.386	correct	0.386	grate	n/a	48	1	n/a	n/a	n/a	n/a	left
287.193	0.374	correct	0.374	grate	n/a	48	1	n/a	n/a	n/a	n/a	right
288.076	0.339	correct	0.339	grate	n/a	48	1	n/a	n/a	n/a	n/a	left
288.926	0.100	incorrect	0.100	grate	n/a	48	1	n/a	n/a	n/a	n/a	right
290.025	2.000	object	2.067	localizer	weak unrelated	49	1	9	85	113	290.0	n/a
294.008	2.000	object	0.883	localizer	strong related	50	1	9	86	114	294.0	n/a
298.008	2.000	object	1.947	localizer	strong unrelated	51	1	9	87	115	298.0	n/a
302.007	2.000	object	0.972	localizer	weak related	52	1	9	88	116	302.0	n/a
306.024	2.000	object	2.035	localizer	weak unrelated	53	1	9	89	117	306.0	n/a
310.023	2.000	object	1.283	localizer	strong unrelated	54	1	9	90	118	310.0	n/a
314.062	0.568	correct	0.568	grate	n/a	54	1	n/a	n/a	n/a	n/a	right
315.141	0.346	correct	0.346	grate	n/a	54	1	n/a	n/a	n/a	n/a	right
316.007	0.472	correct	0.472	grate	n/a	54	1	n/a	n/a	n/a	n/a	left
316.990	0.352	correct	0.352	grate	n/a	54	1	n/a	n/a	n/a	n/a	right
317.857	0.415	correct	0.415	grate	n/a	54	1	n/a	n/a	n/a	n/a	left
318.790	0.385	correct	0.385	grate	n/a	54	1	n/a	n/a	n/a	n/a	left
319.690	0.372	correct	0.372	grate	n/a	54	1	n/a	n/a	n/a	n/a	left
320.573	0.402	correct	0.402	grate	n/a	54	1	n/a	n/a	n/a	n/a	left
321.490	0.357	correct	0.357	grate	n/a	54	1	n/a	n/a	n/a	n/a	left
322.356	0.610	correct	0.610	grate	n/a	54	1	n/a	n/a	n/a	n/a	left
323.489	0.461	correct	0.461	grate	n/a	54	1	n/a	n/a	n/a	n/a	right
324.473	0.084	incorrect	0.084	grate	n/a	54	1	n/a	n/a	n/a	n/a	right
