onset	duration	trial_type	response_time	task_type	update_cond	repetition	cate_c	cate_b	cate_o	response_type	response	subs_response	subs_score	trial_id	run_id	word_id	img_id	stim_c	stim_b	design_onset	item_position
1.017	2.000	remember	0.013	updating	restudy	1	object	scene	face	target	object	competitor	forget	1	2	127	79	179	231	1.000	16
5.917	2.000	remember	0.020	updating	restudy	1	face	scene	object	target	face	no response	no response	2	2	103	31	79	207	5.898	20
10.766	2.000	forget	0.312	updating	retprac	1	scene	object	face	competitor	object	target	remember	3	2	78	126	278	130	10.754	11
18.465	2.000	remember	0.422	updating	restudy	1	scene	object	face	target	scene	competitor	forget	4	2	79	127	279	131	18.443	17
25.248	2.000	don't know	0.190	updating	retprac	1	scene	face	object	don't know	don't know	target	remember	5	2	32	104	256	32	25.239	8
30.048	2.000	don't know	0.454	updating	retprac	1	face	scene	object	don't know	don't know	no response	no response	6	2	104	32	80	208	30.026	12
35.014	2.000	remember	0.304	updating	retprac	1	object	scene	face	target	object	target	remember	7	2	128	80	180	232	34.992	7
40.313	2.000	don't know	0.316	updating	retprac	1	object	face	scene	don't know	don't know	competitor	forget	8	2	6	54	154	6	40.296	3
45.546	2.000	remember	0.323	updating	restudy	1	face	scene	object	target	face	competitor	forget	9	2	101	29	77	205	45.526	24
50.396	2.000	don't know	0.329	updating	retprac	1	scene	object	face	don't know	don't know	other	forget	10	2	80	128	280	132	50.389	6
55.445	2.000	remember	0.384	updating	restudy	1	scene	face	object	target	scene	don't know	don't know	11	2	29	101	253	29	55.433	19
60.895	2.000	remember	0.815	updating	restudy	1	scene	object	face	target	scene	competitor	forget	12	2	77	125	277	129	60.878	13
71.260	2.000	forget	0.504	updating	retprac	1	object	face	scene	competitor	face	target	remember	13	2	8	56	156	8	71.242	1
76.276	2.000	remember	0.256	updating	restudy	2	object	scene	face	target	object	competitor	forget	14	2	127	79	179	231	76.256	16
82.009	2.000	forget	0.643	updating	retprac	1	object	scene	face	competitor	scene	other	forget	15	2	126	78	178	230	82.001	9
88.875	2.000	remember	0.015	updating	retprac	2	scene	object	face	target	scene	target	remember	16	2	78	126	278	130	88.867	11
93.408	2.000	remember	0.132	updating	restudy	1	object	face	scene	target	object	competitor	forget	17	2	5	53	153	5	93.394	21
98.074	2.000	forget	0.577	updating	retprac	2	scene	face	object	other	object	target	remember	18	2	32	104	256	32	98.062	8
102.740	2.000	forget	0.383	updating	retprac	1	scene	face	object	competitor	face	competitor	forget	19	2	30	102	254	30	102.729	5
107.523	2.000	remember	0.264	updating	restudy	2	face	scene	object	target	face	no response	no response	20	2	103	31	79	207	107.504	20
113.639	2.000	remember	0.267	updating	restudy	2	face	scene	object	target	face	competitor	forget	21	2	101	29	77	205	113.619	24
121.522	2.000	remember	0.249	updating	restudy	1	object	face	scene	target	object	other	forget	22	2	7	55	155	7	121.514	18
126.521	2.000	forget	0.281	updating	retprac	2	scene	object	face	other	face	other	forget	23	2	80	128	280	132	126.513	6
131.254	2.000	remember	0.548	updating	restudy	1	object	scene	face	target	object	don't know	don't know	24	2	125	77	177	229	131.234	22
137.937	2.000	remember	0.329	updating	restudy	1	scene	face	object	target	scene	target	remember	25	2	31	103	255	31	137.925	23
143.386	2.000	remember	0.263	updating	restudy	2	scene	object	face	target	scene	competitor	forget	26	2	79	127	279	131	143.365	17
148.619	2.000	remember	0.302	updating	restudy	2	scene	face	object	target	scene	don't know	don't know	27	2	29	101	253	29	148.601	19
156.068	2.000	remember	0.893	updating	retprac	1	face	object	scene	target	face	target	remember	28	2	56	8	56	108	156.062	4
165.251	2.000	forget	0.678	updating	retprac	2	object	face	scene	other	scene	competitor	forget	29	2	6	54	154	6	165.228	3
175.550	2.000	remember	0.234	updating	retprac	2	object	scene	face	target	object	target	remember	30	2	128	80	180	232	175.532	7
180.782	2.000	don't know	0.825	updating	retprac	3	scene	face	object	don't know	don't know	target	remember	31	2	32	104	256	32	180.762	8
185.598	2.000	remember	0.617	updating	restudy	3	object	scene	face	target	object	competitor	forget	32	2	127	79	179	231	185.582	16
190.298	2.000	remember	0.445	updating	retprac	2	object	scene	face	target	object	other	forget	33	2	126	78	178	230	190.290	9
195.031	2.000	remember	0.801	updating	retprac	2	face	scene	object	target	face	no response	no response	34	2	104	32	80	208	195.018	12
199.697	2.000	remember	0.374	updating	retprac	2	scene	face	object	target	scene	competitor	forget	35	2	30	102	254	30	199.678	5
207.780	2.000	remember	0.283	updating	restudy	2	scene	object	face	target	scene	competitor	forget	36	2	77	125	277	129	207.759	13
215.762	2.000	forget	0.828	updating	retprac	1	face	scene	object	other	object	other	forget	37	2	102	30	78	206	215.754	2
220.528	2.000	remember	0.015	updating	restudy	2	scene	face	object	target	scene	target	remember	38	2	31	103	255	31	220.509	23
226.694	2.000	remember	0.152	updating	restudy	1	face	object	scene	target	face	competitor	forget	39	2	55	7	55	107	226.678	14
232.010	2.000	remember	0.419	updating	retprac	2	face	object	scene	target	face	target	remember	40	2	56	8	56	108	231.993	4
238.310	2.000	remember	0.079	updating	restudy	2	object	face	scene	target	object	other	forget	41	2	7	55	155	7	238.299	18
246.059	2.000	forget	0.306	updating	retprac	1	face	object	scene	other	scene	other	forget	42	2	54	6	54	106	246.047	10
251.058	2.000	remember	0.138	updating	restudy	1	face	object	scene	target	face	don't know	don't know	43	2	53	5	53	105	251.046	15
255.891	2.000	remember	0.289	updating	restudy	3	scene	object	face	target	scene	competitor	forget	44	2	79	127	279	131	255.872	17
260.758	2.000	remember	0.391	updating	restudy	3	scene	face	object	target	scene	don't know	don't know	45	2	29	101	253	29	260.744	19
265.557	2.000	don't know	0.511	updating	retprac	2	object	face	scene	don't know	don't know	target	remember	46	2	8	56	156	8	265.548	1
274.139	2.000	remember	0.014	updating	restudy	3	face	scene	object	target	face	competitor	forget	47	2	101	29	77	205	274.120	24
279.022	2.000	remember	0.357	updating	restudy	2	object	scene	face	target	object	don't know	don't know	48	2	125	77	177	229	279.000	22
284.488	2.000	remember	0.275	updating	retprac	3	scene	object	face	target	scene	target	remember	49	2	78	126	278	130	284.469	11
289.971	2.000	remember	0.336	updating	restudy	2	object	face	scene	target	object	competitor	forget	50	2	5	53	153	5	289.954	21
294.637	2.000	no response	n/a	updating	restudy	2	face	object	scene	no response	no response	competitor	forget	51	2	55	7	55	107	294.625	14
299.837	2.000	remember	0.302	updating	restudy	3	scene	object	face	target	scene	competitor	forget	52	2	77	125	277	129	299.829	13
308.286	2.000	remember	0.068	updating	restudy	3	face	scene	object	target	face	no response	no response	53	2	103	31	79	207	308.267	20
313.569	2.000	remember	0.273	updating	retprac	3	scene	face	object	target	scene	competitor	forget	54	2	30	102	254	30	313.549	5
318.402	2.000	remember	0.176	updating	retprac	2	face	scene	object	target	face	other	forget	55	2	102	30	78	206	318.389	2
326.884	2.000	forget	0.414	updating	retprac	3	scene	object	face	competitor	object	other	forget	56	2	80	128	280	132	326.866	6
333.367	2.000	remember	0.146	updating	retprac	2	face	object	scene	target	face	other	forget	57	2	54	6	54	106	333.347	10
338.600	2.000	remember	0.013	updating	restudy	2	face	object	scene	target	face	don't know	don't know	58	2	53	5	53	105	338.588	15
343.732	2.000	remember	0.301	updating	retprac	3	face	object	scene	target	face	target	remember	59	2	56	8	56	108	343.712	4
353.981	2.000	remember	0.091	updating	retprac	3	object	face	scene	target	object	competitor	forget	60	2	6	54	154	6	353.974	3
358.664	2.000	remember	0.168	updating	retprac	3	object	scene	face	target	object	other	forget	61	2	126	78	178	230	358.658	9
363.714	2.000	forget	0.742	updating	retprac	3	face	scene	object	competitor	scene	no response	no response	62	2	104	32	80	208	363.703	12
369.163	2.000	remember	0.405	updating	retprac	3	object	scene	face	target	object	target	remember	63	2	128	80	180	232	369.155	7
377.812	2.000	remember	0.011	updating	restudy	3	object	face	scene	target	object	other	forget	64	2	7	55	155	7	377.798	18
387.411	2.000	remember	0.101	updating	restudy	3	scene	face	object	target	scene	target	remember	65	2	31	103	255	31	387.402	23
391.994	2.000	remember	0.693	updating	restudy	3	object	face	scene	target	object	competitor	forget	66	2	5	53	153	5	391.987	21
397.960	2.000	forget	0.319	updating	restudy	3	object	scene	face	competitor	scene	don't know	don't know	67	2	125	77	177	229	397.953	22
402.843	2.000	remember	0.259	updating	retprac	3	face	scene	object	target	face	other	forget	68	2	102	30	78	206	402.824	2
408.742	2.000	remember	0.648	updating	retprac	3	object	face	scene	target	object	target	remember	69	2	8	56	156	8	408.735	1
413.409	2.000	remember	0.319	updating	retprac	3	face	object	scene	target	face	other	forget	70	2	54	6	54	106	413.389	10
419.491	2.000	remember	0.267	updating	restudy	3	face	object	scene	target	face	competitor	forget	71	2	55	7	55	107	419.473	14
426.291	2.000	remember	0.203	updating	restudy	3	face	object	scene	target	face	don't know	don't know	72	2	53	5	53	105	426.279	15
