onset	duration	trial_type	response_time	task_type	response_type	update_cond	cate_c	cate_b	cate_o	trial_id	word_id	img_id	stim_c	stim_b	design_onset
2.038	2.000	incorrect	0.777	practice a-b	object	test	face	scene	object	1	110	110	86	214	2.000
6.537	2.000	incorrect	0.381	practice a-b	face	test	scene	object	face	2	82	82	282	134	6.500
11.035	2.000	correct	0.106	practice a-b	face	test	scene	face	object	3	34	34	258	34	11.000
15.534	2.000	don't know	0.949	practice a-b	don't know	test	object	face	scene	4	22	22	170	22	15.500
20.033	2.000	no response	n/a	practice a-b	no response	test	object	scene	face	5	138	138	190	242	20.000
24.531	2.000	correct	0.298	practice a-b	object	test	scene	object	face	6	90	90	290	142	24.500
29.030	2.000	incorrect	0.570	practice a-b	object	test	object	scene	face	7	132	132	184	236	29.000
33.529	2.000	incorrect	0.375	practice a-b	face	restudy	face	scene	object	8	99	99	75	203	33.500
38.027	2.000	correct	0.638	practice a-b	object	test	scene	object	face	9	84	84	284	136	38.000
42.526	2.000	incorrect	0.372	practice a-b	face	test	face	object	scene	10	62	62	62	114	42.500
47.025	2.000	correct	0.536	practice a-b	face	restudy	scene	face	object	11	29	29	253	29	47.000
51.523	2.000	incorrect	0.548	practice a-b	scene	restudy	face	object	scene	12	69	69	69	121	51.500
56.022	2.000	no response	n/a	practice a-b	no response	test	object	scene	face	13	126	126	178	230	56.000
60.537	2.000	correct	0.398	practice a-b	face	test	scene	face	object	14	28	28	252	28	60.500
65.036	2.000	incorrect	0.420	practice a-b	object	restudy	object	scene	face	15	137	137	189	241	65.000
69.534	2.000	incorrect	0.341	practice a-b	scene	restudy	scene	face	object	16	43	43	267	43	69.500
74.033	2.000	incorrect	0.644	practice a-b	object	test	object	scene	face	17	130	130	182	234	74.000
78.532	2.000	don't know	0.217	practice a-b	don't know	test	face	object	scene	18	50	50	50	102	78.500
83.030	2.000	incorrect	0.600	practice a-b	scene	test	scene	face	object	19	48	48	272	48	83.000
87.529	2.000	incorrect	0.770	practice a-b	face	test	face	object	scene	20	68	68	68	120	87.500
92.028	2.000	incorrect	0.525	practice a-b	scene	test	face	object	scene	21	54	54	54	106	92.000
96.526	2.000	incorrect	0.270	practice a-b	face	test	face	scene	object	22	104	104	80	208	96.500
101.025	2.000	incorrect	0.305	practice a-b	face	restudy	object	scene	face	23	125	125	177	229	101.000
105.524	2.000	correct	0.356	practice a-b	object	test	face	object	scene	24	52	52	52	104	105.500
110.022	2.000	incorrect	0.839	practice a-b	face	restudy	face	scene	object	25	117	117	93	221	110.000
114.538	2.000	incorrect	0.275	practice a-b	face	test	object	scene	face	26	142	142	194	246	114.500
119.036	2.000	correct	0.229	practice a-b	face	restudy	scene	face	object	27	39	39	263	39	119.000
123.535	2.000	correct	0.476	practice a-b	scene	test	object	scene	face	28	134	134	186	238	123.500
128.033	2.000	incorrect	0.260	practice a-b	object	test	object	face	scene	29	20	20	168	20	128.000
132.532	2.000	correct	0.486	practice a-b	object	restudy	scene	object	face	30	79	79	279	131	132.500
137.031	2.000	correct	0.542	practice a-b	face	test	object	face	scene	31	2	2	150	2	137.000
141.529	2.000	correct	0.236	practice a-b	face	restudy	object	face	scene	32	7	7	155	7	141.500
146.028	2.000	incorrect	0.268	practice a-b	face	restudy	face	scene	object	33	111	111	87	215	146.000
150.527	2.000	incorrect	0.407	practice a-b	face	restudy	object	scene	face	34	133	133	185	237	150.500
155.025	2.000	incorrect	0.434	practice a-b	face	test	face	scene	object	35	118	118	94	222	155.000
159.524	2.000	incorrect	0.427	practice a-b	scene	test	object	face	scene	36	24	24	172	24	159.500
164.023	2.000	correct	0.243	practice a-b	face	restudy	scene	face	object	37	27	27	251	27	164.000
168.538	2.000	incorrect	0.415	practice a-b	scene	restudy	face	object	scene	38	59	59	59	111	168.500
173.036	2.000	incorrect	0.664	practice a-b	object	test	object	scene	face	39	124	124	176	228	173.000
177.535	2.000	incorrect	0.389	practice a-b	face	restudy	scene	object	face	40	75	75	275	127	177.500
182.034	2.000	correct	0.369	practice a-b	object	restudy	scene	object	face	41	81	81	281	133	182.000
186.532	2.000	incorrect	0.423	practice a-b	scene	test	face	object	scene	42	66	66	66	118	186.500
191.031	2.000	incorrect	0.816	practice a-b	object	restudy	object	face	scene	43	5	5	153	5	191.000
195.530	2.000	incorrect	0.392	practice a-b	scene	test	object	face	scene	44	14	14	162	14	195.500
200.028	2.000	correct	0.282	practice a-b	face	restudy	scene	face	object	45	41	41	265	41	200.000
204.527	2.000	correct	0.229	practice a-b	face	test	scene	face	object	46	36	36	260	36	204.500
209.026	2.000	correct	0.265	practice a-b	face	restudy	scene	face	object	47	25	25	249	25	209.000
213.524	2.000	incorrect	0.419	practice a-b	face	restudy	scene	object	face	48	89	89	289	141	213.500
218.023	2.000	correct	0.254	practice a-b	face	restudy	object	face	scene	49	23	23	171	23	218.000
222.538	2.000	correct	0.193	practice a-b	object	test	scene	object	face	50	76	76	276	128	222.500
227.037	2.000	correct	0.354	practice a-b	scene	test	object	scene	face	51	128	128	180	232	227.000
231.535	2.000	incorrect	0.098	practice a-b	object	restudy	face	scene	object	52	101	101	77	205	231.500
236.034	2.000	incorrect	0.200	practice a-b	object	test	object	face	scene	53	16	16	164	16	236.000
240.533	2.000	incorrect	0.210	practice a-b	face	test	scene	object	face	54	80	80	280	132	240.500
245.031	2.000	incorrect	0.116	practice a-b	scene	restudy	scene	face	object	55	33	33	257	33	245.000
249.530	2.000	correct	0.304	practice a-b	face	restudy	object	face	scene	56	19	19	167	19	249.500
254.029	2.000	correct	0.291	practice a-b	face	test	scene	face	object	57	38	38	262	38	254.000
258.527	2.000	incorrect	0.232	practice a-b	object	restudy	object	scene	face	58	131	131	183	235	258.500
263.026	2.000	incorrect	0.224	practice a-b	object	test	face	scene	object	59	106	106	82	210	263.000
267.525	2.000	incorrect	0.629	practice a-b	object	test	object	face	scene	60	18	18	166	18	267.500
272.023	2.000	incorrect	0.513	practice a-b	scene	test	scene	face	object	61	46	46	270	46	272.000
276.522	2.000	correct	0.288	practice a-b	scene	test	face	scene	object	62	98	98	74	202	276.500
281.037	2.000	correct	0.272	practice a-b	face	restudy	object	face	scene	63	11	11	159	11	281.000
285.919	2.000	don't know	0.278	practice a-b	don't know	restudy	scene	face	object	64	35	35	259	35	285.500
290.068	2.000	don't know	0.535	practice a-b	don't know	restudy	scene	face	object	65	37	37	261	37	290.000
294.533	2.000	don't know	0.344	practice a-b	don't know	restudy	object	scene	face	66	135	135	187	239	294.500
299.032	2.000	correct	0.281	practice a-b	face	restudy	object	face	scene	67	21	21	169	21	299.000
303.530	2.000	correct	0.358	practice a-b	object	test	face	object	scene	68	58	58	58	110	303.500
308.029	2.000	correct	0.314	practice a-b	scene	restudy	face	scene	object	69	115	115	91	219	308.000
312.528	2.000	correct	0.273	practice a-b	object	restudy	scene	object	face	70	91	91	291	143	312.500
317.026	2.000	incorrect	0.432	practice a-b	face	test	scene	object	face	71	78	78	278	130	317.000
321.525	2.000	correct	0.382	practice a-b	object	test	face	object	scene	72	72	72	72	124	321.500
326.024	2.000	incorrect	0.273	practice a-b	scene	restudy	scene	face	object	73	47	47	271	47	326.000
330.522	2.000	correct	0.296	practice a-b	face	test	object	face	scene	74	6	6	154	6	330.500
335.037	2.000	incorrect	0.390	practice a-b	object	test	face	scene	object	75	102	102	78	206	335.000
339.536	2.000	incorrect	0.291	practice a-b	face	restudy	face	scene	object	76	107	107	83	211	339.500
344.035	2.000	incorrect	0.327	practice a-b	face	restudy	face	object	scene	77	61	61	61	113	344.000
348.533	2.000	don't know	0.480	practice a-b	don't know	test	scene	face	object	78	26	26	250	26	348.500
353.032	2.000	incorrect	0.327	practice a-b	face	restudy	face	object	scene	79	57	57	57	109	353.000
357.531	2.000	incorrect	0.318	practice a-b	object	test	scene	face	object	80	42	42	266	42	357.500
362.029	2.000	incorrect	0.282	practice a-b	scene	restudy	scene	object	face	81	87	87	287	139	362.000
366.528	2.000	incorrect	0.263	practice a-b	object	restudy	object	scene	face	82	141	141	193	245	366.500
371.027	2.000	don't know	0.256	practice a-b	don't know	restudy	object	scene	face	83	139	139	191	243	371.000
375.525	2.000	correct	0.360	practice a-b	face	test	scene	face	object	84	30	30	254	30	375.500
380.024	2.000	incorrect	0.312	practice a-b	object	restudy	object	scene	face	85	129	129	181	233	380.000
384.523	2.000	don't know	0.390	practice a-b	don't know	restudy	scene	object	face	86	77	77	277	129	384.500
389.021	2.000	incorrect	0.512	practice a-b	face	restudy	object	scene	face	87	123	123	175	227	389.000
393.536	2.000	don't know	0.383	practice a-b	don't know	test	object	scene	face	88	122	122	174	226	393.500
398.035	2.000	incorrect	0.280	practice a-b	face	test	object	scene	face	89	140	140	192	244	398.000
402.534	2.000	correct	0.232	practice a-b	object	test	scene	object	face	90	88	88	288	140	402.500
407.032	2.000	incorrect	0.278	practice a-b	face	restudy	face	object	scene	91	71	71	71	123	407.000
411.531	2.000	incorrect	0.224	practice a-b	object	test	scene	face	object	92	40	40	264	40	411.500
416.030	2.000	incorrect	0.314	practice a-b	face	test	face	object	scene	93	70	70	70	122	416.000
420.528	2.000	incorrect	0.259	practice a-b	scene	restudy	scene	object	face	94	85	85	285	137	420.500
425.027	2.000	incorrect	0.380	practice a-b	scene	test	object	face	scene	95	4	4	152	4	425.000
429.526	2.000	incorrect	0.204	practice a-b	face	test	face	object	scene	96	60	60	60	112	429.500
434.024	2.000	correct	0.296	practice a-b	face	restudy	scene	face	object	97	31	31	255	31	434.000
438.523	2.000	incorrect	0.329	practice a-b	object	restudy	object	scene	face	98	121	121	173	225	438.500
443.021	2.000	correct	0.269	practice a-b	scene	restudy	face	scene	object	99	119	119	95	223	443.000
447.537	2.000	correct	0.299	practice a-b	face	test	scene	face	object	100	44	44	268	44	447.500
452.035	2.000	correct	0.471	practice a-b	scene	restudy	object	scene	face	101	127	127	179	231	452.000
456.534	2.000	incorrect	0.399	practice a-b	object	restudy	face	scene	object	102	113	113	89	217	456.500
461.033	2.000	incorrect	0.365	practice a-b	face	test	face	scene	object	103	114	114	90	218	461.000
465.531	2.000	correct	0.426	practice a-b	object	restudy	scene	object	face	104	95	95	295	147	465.500
470.030	2.000	incorrect	0.301	practice a-b	scene	restudy	object	face	scene	105	17	17	165	17	470.000
474.529	2.000	correct	0.360	practice a-b	object	restudy	face	object	scene	106	63	63	63	115	474.500
479.027	2.000	incorrect	0.267	practice a-b	face	restudy	face	scene	object	107	109	109	85	213	479.000
483.526	2.000	incorrect	0.275	practice a-b	face	restudy	scene	object	face	108	93	93	293	145	483.500
488.025	2.000	correct	0.351	practice a-b	object	restudy	face	object	scene	109	65	65	65	117	488.000
492.523	2.000	incorrect	0.408	practice a-b	face	restudy	face	scene	object	110	103	103	79	207	492.500
497.022	2.000	correct	0.242	practice a-b	object	test	scene	object	face	111	94	94	294	146	497.000
501.537	2.000	correct	0.237	practice a-b	face	restudy	object	face	scene	112	13	13	161	13	501.500
506.036	2.000	correct	0.186	practice a-b	face	restudy	object	face	scene	113	1	1	149	1	506.000
510.534	2.000	incorrect	0.279	practice a-b	face	test	object	scene	face	114	144	144	196	248	510.500
515.033	2.000	correct	0.292	practice a-b	object	test	scene	object	face	115	92	92	292	144	515.000
519.532	2.000	incorrect	0.279	practice a-b	face	restudy	face	object	scene	116	51	51	51	103	519.500
524.030	2.000	incorrect	0.294	practice a-b	object	test	face	scene	object	117	108	108	84	212	524.000
528.529	2.000	incorrect	0.305	practice a-b	face	test	face	object	scene	118	56	56	56	108	528.500
533.028	2.000	incorrect	0.247	practice a-b	face	restudy	face	object	scene	119	67	67	67	119	533.000
537.526	2.000	incorrect	0.245	practice a-b	object	test	object	face	scene	120	12	12	160	12	537.500
542.025	2.000	incorrect	0.263	practice a-b	scene	test	scene	object	face	121	96	96	296	148	542.000
546.524	2.000	correct	0.222	practice a-b	face	test	object	face	scene	122	8	8	156	8	546.500
551.022	2.000	correct	0.347	practice a-b	scene	test	face	scene	object	123	116	116	92	220	551.000
555.537	2.000	incorrect	0.336	practice a-b	face	test	scene	object	face	124	86	86	286	138	555.500
560.036	2.000	incorrect	0.451	practice a-b	scene	restudy	face	object	scene	125	49	49	49	101	560.000
564.535	2.000	correct	0.255	practice a-b	scene	test	face	scene	object	126	112	112	88	216	564.500
569.033	2.000	correct	0.382	practice a-b	object	test	face	object	scene	127	64	64	64	116	569.000
573.532	2.000	incorrect	0.235	practice a-b	face	restudy	scene	object	face	128	73	73	273	125	573.500
578.031	2.000	correct	0.305	practice a-b	face	test	object	face	scene	129	10	10	158	10	578.000
582.529	2.000	correct	0.227	practice a-b	object	restudy	face	object	scene	130	55	55	55	107	582.500
587.028	2.000	correct	0.203	practice a-b	scene	restudy	face	scene	object	131	97	97	73	201	587.000
591.527	2.000	incorrect	0.330	practice a-b	object	restudy	object	scene	face	132	143	143	195	247	591.500
596.025	2.000	incorrect	0.224	practice a-b	object	restudy	face	scene	object	133	105	105	81	209	596.000
600.524	2.000	correct	0.255	practice a-b	object	restudy	face	object	scene	134	53	53	53	105	600.500
605.023	2.000	incorrect	0.440	practice a-b	face	restudy	scene	object	face	135	83	83	283	135	605.000
609.538	2.000	correct	0.184	practice a-b	object	test	scene	object	face	136	74	74	274	126	609.500
614.036	2.000	correct	0.239	practice a-b	scene	test	face	scene	object	137	120	120	96	224	614.000
618.535	2.000	correct	0.304	practice a-b	face	restudy	object	face	scene	138	15	15	163	15	618.500
623.034	2.000	correct	0.455	practice a-b	face	restudy	object	face	scene	139	3	3	151	3	623.000
627.532	2.000	correct	0.395	practice a-b	scene	test	face	scene	object	140	100	100	76	204	627.500
632.031	2.000	correct	0.305	practice a-b	face	restudy	scene	face	object	141	45	45	269	45	632.000
636.530	2.000	correct	0.240	practice a-b	scene	test	object	scene	face	142	136	136	188	240	636.500
641.028	2.000	incorrect	0.204	practice a-b	object	test	scene	face	object	143	32	32	256	32	641.000
645.527	2.000	correct	0.327	practice a-b	face	restudy	object	face	scene	144	9	9	157	9	645.500
2.032	2.000	incorrect	0.301	practice a-b	object	restudy	object	face	scene	145	5	5	153	5	2.000
6.531	2.000	correct	0.287	practice a-b	object	test	face	object	scene	146	54	54	54	106	6.500
11.030	2.000	correct	0.224	practice a-b	face	restudy	scene	face	object	147	33	33	257	33	11.000
15.528	2.000	correct	0.301	practice a-b	object	test	scene	object	face	148	78	78	278	130	15.500
20.043	2.000	correct	0.553	practice a-b	scene	restudy	face	scene	object	149	103	103	79	207	20.000
24.525	2.000	correct	0.427	practice a-b	face	test	object	face	scene	150	14	14	162	14	24.500
29.024	2.000	incorrect	0.558	practice a-b	scene	restudy	scene	object	face	151	87	87	287	139	29.000
33.523	2.000	incorrect	0.497	practice a-b	face	test	object	scene	face	152	130	130	182	234	33.500
38.021	2.000	incorrect	0.501	practice a-b	scene	restudy	scene	object	face	153	93	93	293	145	38.000
42.537	2.000	correct	0.644	practice a-b	scene	test	object	scene	face	154	140	140	192	244	42.500
47.035	2.000	correct	0.397	practice a-b	object	test	scene	object	face	155	80	80	280	132	47.000
51.534	2.000	correct	0.276	practice a-b	scene	restudy	object	scene	face	156	121	121	173	225	51.500
56.033	2.000	incorrect	0.265	practice a-b	face	restudy	object	scene	face	157	131	131	183	235	56.000
60.531	2.000	incorrect	0.310	practice a-b	object	restudy	scene	face	object	158	37	37	261	37	60.500
65.030	2.000	incorrect	0.431	practice a-b	face	test	object	scene	face	159	124	124	176	228	65.000
69.545	2.000	correct	0.345	practice a-b	object	test	scene	object	face	160	96	96	296	148	69.500
74.027	2.000	correct	0.268	practice a-b	face	test	scene	face	object	161	42	42	266	42	74.000
78.526	2.000	correct	0.322	practice a-b	scene	test	face	scene	object	162	108	108	84	212	78.500
83.024	2.000	incorrect	0.267	practice a-b	scene	restudy	face	object	scene	163	61	61	61	113	83.000
87.523	2.000	incorrect	0.358	practice a-b	scene	test	object	face	scene	164	20	20	168	20	87.500
92.022	2.000	incorrect	0.285	practice a-b	face	test	face	object	scene	165	60	60	60	112	92.000
96.537	2.000	incorrect	0.339	practice a-b	face	test	face	scene	object	166	104	104	80	208	96.500
101.036	2.000	incorrect	0.346	practice a-b	scene	restudy	scene	object	face	167	89	89	289	141	101.000
105.534	2.000	correct	0.337	practice a-b	scene	restudy	face	scene	object	168	117	117	93	221	105.500
110.033	2.000	correct	0.231	practice a-b	object	restudy	face	object	scene	169	59	59	59	111	110.000
114.532	2.000	incorrect	0.209	practice a-b	face	restudy	object	scene	face	170	125	125	177	229	114.500
119.030	2.000	incorrect	0.764	practice a-b	face	test	object	scene	face	171	144	144	196	248	119.000
123.529	2.000	don't know	0.428	practice a-b	don't know	restudy	face	scene	object	172	113	113	89	217	123.500
128.028	2.000	incorrect	0.311	practice a-b	face	restudy	face	object	scene	173	49	49	49	101	128.000
132.526	2.000	correct	0.220	practice a-b	scene	test	object	scene	face	174	138	138	190	242	132.500
137.025	2.000	correct	0.298	practice a-b	object	test	face	object	scene	175	70	70	70	122	137.000
141.523	2.000	correct	0.277	practice a-b	face	test	object	face	scene	176	4	4	152	4	141.500
146.022	2.000	incorrect	0.254	practice a-b	object	restudy	object	scene	face	177	141	141	193	245	146.000
150.537	2.000	correct	0.257	practice a-b	scene	test	object	scene	face	178	142	142	194	246	150.500
155.036	2.000	incorrect	0.365	practice a-b	face	test	scene	object	face	179	82	82	282	134	155.000
159.535	2.000	incorrect	0.418	practice a-b	face	restudy	scene	object	face	180	73	73	273	125	159.500
164.033	2.000	incorrect	0.297	practice a-b	object	restudy	scene	face	object	181	47	47	271	47	164.000
168.532	2.000	incorrect	0.367	practice a-b	object	test	object	face	scene	182	22	22	170	22	168.500
173.031	2.000	correct	0.356	practice a-b	object	test	face	object	scene	183	66	66	66	118	173.000
177.529	2.000	incorrect	0.450	practice a-b	object	test	scene	face	object	184	48	48	272	48	177.500
182.028	2.000	incorrect	0.382	practice a-b	scene	restudy	object	face	scene	185	17	17	165	17	182.000
186.527	2.000	correct	0.232	practice a-b	face	test	scene	face	object	186	26	26	250	26	186.500
191.025	2.000	incorrect	0.352	practice a-b	face	test	face	scene	object	187	102	102	78	206	191.000
195.524	2.000	incorrect	0.221	practice a-b	object	restudy	scene	face	object	188	35	35	259	35	195.500
200.022	2.000	incorrect	0.323	practice a-b	face	restudy	face	scene	object	189	99	99	75	203	200.000
204.538	2.000	incorrect	0.323	practice a-b	scene	test	scene	face	object	190	46	46	270	46	204.500
209.036	2.000	correct	0.443	practice a-b	object	restudy	face	object	scene	191	57	57	57	109	209.000
213.535	2.000	correct	0.258	practice a-b	face	test	object	face	scene	192	18	18	166	18	213.500
218.033	2.000	incorrect	0.338	practice a-b	scene	test	face	object	scene	193	62	62	62	114	218.000
222.532	2.000	correct	0.286	practice a-b	face	test	object	face	scene	194	24	24	172	24	222.500
227.031	2.000	incorrect	0.360	practice a-b	face	restudy	object	scene	face	195	139	139	191	243	227.000
231.530	2.000	incorrect	0.502	practice a-b	object	restudy	face	scene	object	196	105	105	81	209	231.500
236.028	2.000	incorrect	0.294	practice a-b	scene	test	scene	face	object	197	40	40	264	40	236.000
240.527	2.000	incorrect	0.443	practice a-b	face	test	scene	object	face	198	86	86	286	138	240.500
245.025	2.000	correct	0.504	practice a-b	scene	test	object	scene	face	199	132	132	184	236	245.000
249.524	2.000	incorrect	0.345	practice a-b	face	restudy	scene	object	face	200	85	85	285	137	249.500
254.023	2.000	incorrect	0.299	practice a-b	object	restudy	object	scene	face	201	135	135	187	239	254.000
258.521	2.000	correct	0.295	practice a-b	scene	restudy	face	scene	object	202	111	111	87	215	258.500
263.037	2.000	correct	0.217	practice a-b	scene	restudy	face	scene	object	203	101	101	77	205	263.000
267.536	2.000	incorrect	0.338	practice a-b	face	restudy	face	object	scene	204	69	69	69	121	267.500
272.034	2.000	incorrect	0.369	practice a-b	scene	test	face	object	scene	205	56	56	56	108	272.000
276.533	2.000	incorrect	0.289	practice a-b	object	restudy	object	scene	face	206	137	137	189	241	276.500
281.031	2.000	incorrect	0.377	practice a-b	face	restudy	face	scene	object	207	107	107	83	211	281.000
285.530	2.000	incorrect	0.453	practice a-b	face	test	face	scene	object	208	106	106	82	210	285.500
290.028	2.000	incorrect	0.355	practice a-b	object	restudy	object	scene	face	209	123	123	175	227	290.000
294.527	2.000	incorrect	0.265	practice a-b	scene	test	object	face	scene	210	12	12	160	12	294.500
299.026	2.000	incorrect	0.242	practice a-b	scene	test	face	object	scene	211	68	68	68	120	299.000
303.524	2.000	incorrect	0.374	practice a-b	face	restudy	scene	object	face	212	75	75	275	127	303.500
308.023	2.000	correct	0.401	practice a-b	object	restudy	scene	object	face	213	83	83	283	135	308.000
312.522	2.000	correct	0.279	practice a-b	object	test	face	object	scene	214	50	50	50	102	312.500
317.037	2.000	incorrect	0.533	practice a-b	face	restudy	face	object	scene	215	67	67	67	119	317.000
321.536	2.000	correct	0.329	practice a-b	object	restudy	face	object	scene	216	71	71	71	123	321.500
326.034	2.000	correct	0.276	practice a-b	face	restudy	scene	face	object	217	43	43	267	43	326.000
330.533	2.000	correct	0.268	practice a-b	scene	restudy	object	scene	face	218	133	133	185	237	330.500
335.032	2.000	incorrect	0.355	practice a-b	face	restudy	face	object	scene	219	51	51	51	103	335.000
339.530	2.000	correct	0.280	practice a-b	scene	test	face	scene	object	220	114	114	90	218	339.500
344.029	2.000	incorrect	0.291	practice a-b	face	restudy	object	scene	face	221	129	129	181	233	344.000
348.528	2.000	correct	0.291	practice a-b	scene	test	object	scene	face	222	122	122	174	226	348.500
353.026	2.000	incorrect	0.264	practice a-b	object	test	object	face	scene	223	16	16	164	16	353.000
357.525	2.000	incorrect	0.310	practice a-b	scene	test	scene	face	object	224	32	32	256	32	357.500
362.023	2.000	correct	0.307	practice a-b	object	restudy	scene	object	face	225	77	77	277	129	362.000
366.522	2.000	correct	0.277	practice a-b	scene	restudy	object	scene	face	226	143	143	195	247	366.500
371.037	2.000	correct	0.366	practice a-b	scene	restudy	face	scene	object	227	109	109	85	213	371.000
375.536	2.000	incorrect	0.602	practice a-b	object	test	face	scene	object	228	118	118	94	222	375.500
380.035	2.000	incorrect	0.361	practice a-b	object	test	face	scene	object	229	110	110	86	214	380.000
384.533	2.000	incorrect	0.395	practice a-b	face	test	object	scene	face	230	126	126	178	230	384.500
2.037	2.000	correct	0.250	practice a-b	face	test	object	face	scene	231	12	12	160	12	2.000
6.536	2.000	incorrect	0.326	practice a-b	object	restudy	face	scene	object	232	107	107	83	211	6.500
11.035	2.000	incorrect	0.521	practice a-b	object	test	face	scene	object	233	110	110	86	214	11.000
15.533	2.000	incorrect	0.338	practice a-b	face	restudy	scene	object	face	234	89	89	289	141	15.500
20.032	2.000	correct	0.277	practice a-b	scene	restudy	object	scene	face	235	139	139	191	243	20.000
24.531	2.000	incorrect	0.332	practice a-b	face	restudy	face	scene	object	236	113	113	89	217	24.500
29.029	2.000	correct	0.255	practice a-b	object	test	face	object	scene	237	68	68	68	120	29.000
33.528	2.000	correct	0.374	practice a-b	face	test	object	face	scene	238	22	22	170	22	33.500
38.027	2.000	correct	0.275	practice a-b	scene	test	face	scene	object	239	106	106	82	210	38.000
42.525	2.000	correct	0.431	practice a-b	object	restudy	scene	object	face	240	73	73	273	125	42.500
47.024	2.000	incorrect	0.411	practice a-b	face	restudy	scene	object	face	241	87	87	287	139	47.000
51.523	2.000	incorrect	0.398	practice a-b	scene	restudy	face	object	scene	242	49	49	49	101	51.500
56.021	2.000	correct	0.320	practice a-b	face	restudy	scene	face	object	243	35	35	259	35	56.000
60.536	2.000	correct	0.243	practice a-b	scene	test	face	scene	object	244	104	104	80	208	60.500
65.035	2.000	incorrect	0.298	practice a-b	face	restudy	object	scene	face	245	131	131	183	235	65.000
69.534	2.000	incorrect	0.333	practice a-b	face	restudy	object	scene	face	246	137	137	189	241	69.500
74.032	2.000	incorrect	0.538	practice a-b	scene	test	scene	object	face	247	86	86	286	138	74.000
78.531	2.000	incorrect	0.251	practice a-b	scene	test	scene	face	object	248	32	32	256	32	78.500
83.030	2.000	incorrect	0.323	practice a-b	object	restudy	object	scene	face	249	125	125	177	229	83.000
87.528	2.000	correct	0.255	practice a-b	face	restudy	object	face	scene	250	17	17	165	17	87.500
92.027	2.000	incorrect	0.388	practice a-b	object	restudy	scene	face	object	251	47	47	271	47	92.000
96.526	2.000	incorrect	0.273	practice a-b	face	test	face	object	scene	252	60	60	60	112	96.500
101.024	2.000	incorrect	0.599	practice a-b	scene	test	object	face	scene	253	16	16	164	16	101.000
105.523	2.000	incorrect	0.237	practice a-b	face	test	object	scene	face	254	126	126	178	230	105.500
110.021	2.000	incorrect	0.339	practice a-b	scene	restudy	face	object	scene	255	69	69	69	121	110.000
114.537	2.000	incorrect	0.252	practice a-b	face	test	face	scene	object	256	102	102	78	206	114.500
119.035	2.000	correct	0.278	practice a-b	scene	restudy	object	scene	face	257	123	123	175	227	119.000
123.534	2.000	incorrect	0.366	practice a-b	face	test	face	object	scene	258	62	62	62	114	123.500
128.033	2.000	incorrect	0.320	practice a-b	face	test	face	object	scene	259	56	56	56	108	128.000
132.531	2.000	incorrect	0.399	practice a-b	scene	restudy	face	object	scene	260	61	61	61	113	132.500
137.030	2.000	incorrect	0.517	practice a-b	object	restudy	object	scene	face	261	141	141	193	245	137.000
141.545	2.000	incorrect	0.277	practice a-b	face	test	scene	object	face	262	82	82	282	134	141.500
146.027	2.000	incorrect	0.343	practice a-b	object	test	face	scene	object	263	118	118	94	222	146.000
150.526	2.000	incorrect	0.364	practice a-b	scene	restudy	object	face	scene	264	5	5	153	5	150.500
155.025	2.000	correct	0.217	practice a-b	scene	test	object	scene	face	265	144	144	196	248	155.000
159.523	2.000	incorrect	0.382	practice a-b	face	restudy	face	object	scene	266	51	51	51	103	159.500
164.022	2.000	incorrect	0.454	practice a-b	object	test	object	face	scene	267	20	20	168	20	164.000
168.537	2.000	incorrect	0.341	practice a-b	face	restudy	face	object	scene	268	67	67	67	119	168.500
173.036	2.000	incorrect	0.409	practice a-b	scene	test	scene	face	object	269	40	40	264	40	173.000
177.534	2.000	incorrect	0.288	practice a-b	object	restudy	face	scene	object	270	105	105	81	209	177.500
182.033	2.000	incorrect	0.495	practice a-b	object	restudy	face	scene	object	271	99	99	75	203	182.000
186.532	2.000	incorrect	0.357	practice a-b	face	test	object	scene	face	272	130	130	182	234	186.500
191.030	2.000	incorrect	0.244	practice a-b	scene	restudy	scene	object	face	273	75	75	275	127	191.000
195.529	2.000	incorrect	0.284	practice a-b	scene	restudy	scene	object	face	274	93	93	293	145	195.500
200.028	2.000	correct	0.305	practice a-b	face	restudy	scene	face	object	275	37	37	261	37	200.000
204.526	2.000	incorrect	0.384	practice a-b	face	restudy	object	scene	face	276	129	129	181	233	204.500
209.025	2.000	correct	0.378	practice a-b	scene	restudy	object	scene	face	277	135	135	187	239	209.000
213.524	2.000	incorrect	0.229	practice a-b	scene	restudy	scene	object	face	278	85	85	285	137	213.500
218.022	2.000	incorrect	0.204	practice a-b	object	test	scene	face	object	279	48	48	272	48	218.000
222.537	2.000	correct	0.298	practice a-b	face	test	scene	face	object	280	46	46	270	46	222.500
227.036	2.000	incorrect	0.362	practice a-b	object	test	object	scene	face	281	124	124	176	228	227.000
2.023	2.000	incorrect	0.402	practice a-b	object	test	face	scene	object	282	110	110	86	214	2.000
6.522	2.000	incorrect	0.524	practice a-b	scene	test	scene	object	face	283	82	82	282	134	6.500
11.037	2.000	incorrect	0.369	practice a-b	face	restudy	object	scene	face	284	129	129	181	233	11.000
15.535	2.000	correct	0.577	practice a-b	object	restudy	scene	object	face	285	75	75	275	127	15.500
20.034	2.000	correct	0.432	practice a-b	scene	restudy	face	scene	object	286	107	107	83	211	20.000
24.533	2.000	correct	0.368	practice a-b	object	restudy	face	object	scene	287	61	61	61	113	24.500
29.031	2.000	correct	0.355	practice a-b	scene	restudy	face	scene	object	288	113	113	89	217	29.000
33.530	2.000	correct	0.316	practice a-b	scene	restudy	object	scene	face	289	131	131	183	235	33.500
38.029	2.000	correct	0.695	practice a-b	object	restudy	face	object	scene	290	67	67	67	119	38.000
42.527	2.000	correct	0.234	practice a-b	scene	test	object	scene	face	291	124	124	176	228	42.500
47.026	2.000	correct	0.613	practice a-b	face	restudy	scene	face	object	292	47	47	271	47	47.000
51.576	2.000	correct	0.273	practice a-b	object	restudy	face	object	scene	293	69	69	69	121	51.500
56.023	2.000	correct	0.427	practice a-b	scene	restudy	object	scene	face	294	141	141	193	245	56.000
60.522	2.000	incorrect	0.408	practice a-b	face	restudy	face	scene	object	295	105	105	81	209	60.500
65.037	2.000	incorrect	0.315	practice a-b	face	test	face	object	scene	296	60	60	60	112	65.000
69.536	2.000	incorrect	0.538	practice a-b	object	restudy	object	scene	face	297	125	125	177	229	69.500
74.034	2.000	correct	0.257	practice a-b	face	test	object	face	scene	298	20	20	168	20	74.000
78.533	2.000	correct	0.222	practice a-b	object	restudy	face	object	scene	299	49	49	49	101	78.500
83.032	2.000	correct	0.443	practice a-b	face	restudy	object	face	scene	300	5	5	153	5	83.000
87.530	2.000	correct	0.217	practice a-b	object	test	face	object	scene	301	62	62	62	114	87.500
92.029	2.000	correct	0.377	practice a-b	face	test	object	face	scene	302	16	16	164	16	92.000
96.528	2.000	incorrect	0.544	practice a-b	scene	test	scene	face	object	303	32	32	256	32	96.500
101.026	2.000	correct	0.309	practice a-b	face	test	scene	face	object	304	40	40	264	40	101.000
105.525	2.000	incorrect	0.199	practice a-b	object	test	face	scene	object	305	102	102	78	206	105.500
110.024	2.000	correct	0.348	practice a-b	object	restudy	scene	object	face	306	93	93	293	145	110.000
114.522	2.000	incorrect	0.512	practice a-b	scene	test	face	object	scene	307	56	56	56	108	114.500
119.038	2.000	incorrect	0.525	practice a-b	face	test	scene	object	face	308	86	86	286	138	119.000
123.536	2.000	correct	0.282	practice a-b	object	restudy	scene	object	face	309	85	85	285	137	123.500
128.035	2.000	incorrect	0.446	practice a-b	face	restudy	object	scene	face	310	137	137	189	241	128.000
132.533	2.000	incorrect	0.348	practice a-b	object	test	face	scene	object	311	118	118	94	222	132.500
137.032	2.000	incorrect	0.387	practice a-b	face	restudy	scene	object	face	312	89	89	289	141	137.000
141.531	2.000	incorrect	0.548	practice a-b	scene	restudy	scene	object	face	313	87	87	287	139	141.500
146.029	2.000	correct	0.312	practice a-b	object	restudy	face	object	scene	314	51	51	51	103	146.000
150.528	2.000	incorrect	0.382	practice a-b	face	test	object	scene	face	315	130	130	182	234	150.500
155.027	2.000	correct	0.357	practice a-b	scene	restudy	face	scene	object	316	99	99	75	203	155.000
159.525	2.000	correct	0.288	practice a-b	scene	test	object	scene	face	317	126	126	178	230	159.500
164.024	2.000	incorrect	0.375	practice a-b	scene	test	scene	face	object	318	48	48	272	48	164.000
2.032	2.000	correct	0.257	practice a-b	object	restudy	scene	object	face	319	89	89	289	141	2.000
6.531	2.000	correct	0.290	practice a-b	object	test	scene	object	face	320	82	82	282	134	6.500
11.030	2.000	correct	0.257	practice a-b	scene	test	object	scene	face	321	130	130	182	234	11.000
15.528	2.000	incorrect	0.403	practice a-b	face	restudy	face	scene	object	322	105	105	81	209	15.500
20.027	2.000	correct	0.363	practice a-b	scene	test	face	scene	object	323	102	102	78	206	20.000
24.526	2.000	incorrect	0.329	practice a-b	scene	test	face	object	scene	324	56	56	56	108	24.500
29.024	2.000	correct	0.308	practice a-b	scene	restudy	object	scene	face	325	137	137	189	241	29.000
33.523	2.000	correct	0.712	practice a-b	face	test	scene	face	object	326	48	48	272	48	33.500
38.038	2.000	correct	0.328	practice a-b	object	restudy	scene	object	face	327	87	87	287	139	38.000
42.537	2.000	incorrect	0.249	practice a-b	object	restudy	object	scene	face	328	129	129	181	233	42.500
47.035	2.000	incorrect	0.702	practice a-b	scene	test	scene	face	object	329	32	32	256	32	47.000
51.534	2.000	correct	0.271	practice a-b	scene	test	face	scene	object	330	110	110	86	214	51.500
56.033	2.000	correct	0.259	practice a-b	scene	restudy	object	scene	face	331	125	125	177	229	56.000
60.531	2.000	incorrect	0.292	practice a-b	object	test	face	scene	object	332	118	118	94	222	60.500
65.030	2.000	incorrect	0.251	practice a-b	scene	test	face	object	scene	333	60	60	60	112	65.000
69.529	2.000	incorrect	0.310	practice a-b	face	test	scene	object	face	334	86	86	286	138	69.500
2.032	2.000	correct	0.312	practice a-b	object	test	face	object	scene	335	60	60	60	112	2.000
6.531	2.000	incorrect	0.422	practice a-b	scene	test	scene	face	object	336	32	32	256	32	6.500
11.030	2.000	incorrect	0.468	practice a-b	object	restudy	object	scene	face	337	129	129	181	233	11.000
15.528	2.000	correct	0.426	practice a-b	scene	test	face	scene	object	338	118	118	94	222	15.500
20.027	2.000	correct	0.282	practice a-b	object	test	scene	object	face	339	86	86	286	138	20.000
24.525	2.000	incorrect	0.268	practice a-b	face	test	face	object	scene	340	56	56	56	108	24.500
29.024	2.000	correct	0.249	practice a-b	scene	restudy	face	scene	object	341	105	105	81	209	29.000
2.032	2.000	incorrect	0.336	practice a-b	face	restudy	object	scene	face	342	129	129	181	233	2.000
6.531	2.000	incorrect	0.374	practice a-b	scene	test	scene	face	object	343	32	32	256	32	6.500
11.030	2.000	correct	0.493	practice a-b	object	test	face	object	scene	344	56	56	56	108	11.000
2.032	2.000	correct	0.305	practice a-b	scene	restudy	object	scene	face	345	129	129	181	233	2.000
6.531	2.000	correct	0.269	practice a-b	face	test	scene	face	object	346	32	32	256	32	6.500
