onset	duration	trial_type	response_time	task_type	response_type	update_cond	cate_c	cate_b	cate_o	trial_id	word_id	img_id	stim_c	stim_b	design_onset
2.011	2.000	incorrect	0.639	practice a-b	face	restudy	scene	object	face	1	75	75	275	127	2.000
6.510	2.000	no response	n/a	practice a-b	no response	test	face	object	scene	2	68	68	68	120	6.500
11.009	2.000	correct	0.374	practice a-b	face	test	object	face	scene	3	10	10	158	10	11.000
15.508	2.000	no response	n/a	practice a-b	no response	test	object	scene	face	4	142	142	194	246	15.500
20.007	2.000	no response	n/a	practice a-b	no response	test	scene	object	face	5	96	96	296	148	20.000
24.507	2.000	no response	n/a	practice a-b	no response	restudy	face	scene	object	6	107	107	83	211	24.500
29.022	2.000	incorrect	0.486	practice a-b	object	restudy	object	scene	face	7	139	139	191	243	29.000
33.522	2.000	no response	n/a	practice a-b	no response	test	scene	object	face	8	90	90	290	142	33.500
38.021	2.000	incorrect	0.342	practice a-b	object	test	object	scene	face	9	122	122	174	226	38.000
42.520	2.000	incorrect	0.082	practice a-b	face	test	object	scene	face	10	124	124	176	228	42.500
47.019	2.000	incorrect	0.482	practice a-b	face	test	object	scene	face	11	132	132	184	236	47.000
51.518	2.000	incorrect	0.255	practice a-b	scene	restudy	scene	face	object	12	33	33	257	33	51.500
56.017	2.000	no response	n/a	practice a-b	no response	test	face	object	scene	13	60	60	60	112	56.000
60.517	2.000	incorrect	0.741	practice a-b	face	test	scene	object	face	14	76	76	276	128	60.500
65.016	2.000	incorrect	0.194	practice a-b	scene	test	scene	object	face	15	78	78	278	130	65.000
69.515	2.000	incorrect	0.605	practice a-b	object	restudy	object	scene	face	16	121	121	173	225	69.500
74.014	2.000	incorrect	0.042	practice a-b	scene	test	scene	object	face	17	82	82	282	134	74.000
78.513	2.000	incorrect	0.693	practice a-b	object	restudy	scene	face	object	18	41	41	265	41	78.500
83.013	2.000	correct	0.570	practice a-b	scene	restudy	face	scene	object	19	99	99	75	203	83.000
87.512	2.000	incorrect	0.326	practice a-b	scene	restudy	object	face	scene	20	5	5	153	5	87.500
92.011	2.000	incorrect	0.720	practice a-b	face	restudy	face	scene	object	21	105	105	81	209	92.000
96.510	2.000	incorrect	0.838	practice a-b	scene	restudy	object	face	scene	22	11	11	159	11	96.500
101.009	2.000	no response	n/a	practice a-b	no response	test	face	scene	object	23	104	104	80	208	101.000
105.508	2.000	incorrect	0.012	practice a-b	face	restudy	face	object	scene	24	59	59	59	111	105.500
110.008	2.000	no response	n/a	practice a-b	no response	test	scene	object	face	25	74	74	274	126	110.000
114.507	2.000	incorrect	0.590	practice a-b	face	test	face	scene	object	26	106	106	82	210	114.500
119.006	2.000	correct	0.416	practice a-b	face	test	object	face	scene	27	14	14	162	14	119.000
123.522	2.000	don't know	0.371	practice a-b	don't know	restudy	face	scene	object	28	109	109	85	213	123.500
128.021	2.000	no response	n/a	practice a-b	no response	restudy	object	face	scene	29	3	3	151	3	128.000
132.520	2.000	don't know	0.978	practice a-b	don't know	restudy	object	scene	face	30	123	123	175	227	132.500
137.019	2.000	don't know	0.254	practice a-b	don't know	test	scene	object	face	31	86	86	286	138	137.000
141.518	2.000	don't know	0.394	practice a-b	don't know	test	scene	face	object	32	46	46	270	46	141.500
146.018	2.000	correct	0.620	practice a-b	object	restudy	scene	object	face	33	79	79	279	131	146.000
150.517	2.000	correct	0.311	practice a-b	face	restudy	object	face	scene	34	23	23	171	23	150.500
155.016	2.000	incorrect	0.906	practice a-b	face	test	face	object	scene	35	66	66	66	118	155.000
159.515	2.000	don't know	0.496	practice a-b	don't know	test	face	object	scene	36	58	58	58	110	159.500
164.014	2.000	incorrect	0.875	practice a-b	object	restudy	object	scene	face	37	141	141	193	245	164.000
168.514	2.000	don't know	0.497	practice a-b	don't know	restudy	scene	object	face	38	89	89	289	141	168.500
173.013	2.000	don't know	0.413	practice a-b	don't know	restudy	face	object	scene	39	61	61	61	113	173.000
177.512	2.000	don't know	0.503	practice a-b	don't know	restudy	object	scene	face	40	127	127	179	231	177.500
182.011	2.000	don't know	0.266	practice a-b	don't know	test	object	scene	face	41	138	138	190	242	182.000
186.510	2.000	no response	n/a	practice a-b	no response	test	face	object	scene	42	52	52	52	104	186.500
191.010	2.000	no response	n/a	practice a-b	no response	restudy	face	scene	object	43	115	115	91	219	191.000
195.509	2.000	correct	0.298	practice a-b	face	test	object	face	scene	44	12	12	160	12	195.500
200.008	2.000	correct	0.325	practice a-b	face	test	scene	face	object	45	48	48	272	48	200.000
204.507	2.000	don't know	0.450	practice a-b	don't know	test	face	object	scene	46	62	62	62	114	204.500
209.006	2.000	incorrect	0.196	practice a-b	face	test	face	object	scene	47	64	64	64	116	209.000
213.522	2.000	don't know	0.297	practice a-b	don't know	restudy	scene	face	object	48	27	27	251	27	213.500
218.021	2.000	correct	0.562	practice a-b	object	restudy	face	object	scene	49	57	57	57	109	218.000
222.520	2.000	no response	n/a	practice a-b	no response	restudy	scene	object	face	50	77	77	277	129	222.500
227.020	2.000	correct	0.307	practice a-b	face	restudy	scene	face	object	51	43	43	267	43	227.000
231.519	2.000	incorrect	0.247	practice a-b	scene	test	scene	face	object	52	34	34	258	34	231.500
236.018	2.000	correct	0.338	practice a-b	object	test	scene	object	face	53	88	88	288	140	236.000
240.517	2.000	incorrect	0.375	practice a-b	scene	restudy	object	face	scene	54	1	1	149	1	240.500
245.016	2.000	incorrect	0.371	practice a-b	object	test	scene	face	object	55	26	26	250	26	245.000
249.515	2.000	incorrect	0.694	practice a-b	face	restudy	scene	object	face	56	81	81	281	133	249.500
254.015	2.000	don't know	0.291	practice a-b	don't know	test	face	scene	object	57	108	108	84	212	254.000
258.514	2.000	incorrect	0.350	practice a-b	face	restudy	scene	object	face	58	83	83	283	135	258.500
263.013	2.000	correct	0.505	practice a-b	scene	restudy	face	scene	object	59	113	113	89	217	263.000
267.512	2.000	incorrect	0.269	practice a-b	scene	test	scene	object	face	60	92	92	292	144	267.500
272.011	2.000	correct	0.382	practice a-b	object	restudy	face	object	scene	61	55	55	55	107	272.000
276.511	2.000	no response	n/a	practice a-b	no response	test	face	scene	object	62	120	120	96	224	276.500
281.010	2.000	correct	0.226	practice a-b	scene	restudy	object	scene	face	63	137	137	189	241	281.000
285.509	2.000	correct	0.389	practice a-b	object	restudy	face	object	scene	64	63	63	63	115	285.500
290.008	2.000	incorrect	0.211	practice a-b	scene	test	scene	face	object	65	30	30	254	30	290.000
294.507	2.000	incorrect	0.223	practice a-b	face	test	face	scene	object	66	114	114	90	218	294.500
299.006	2.000	incorrect	0.693	practice a-b	scene	restudy	scene	face	object	67	39	39	263	39	299.000
303.522	2.000	incorrect	0.545	practice a-b	scene	test	scene	face	object	68	40	40	264	40	303.500
308.021	2.000	correct	0.357	practice a-b	face	restudy	scene	face	object	69	45	45	269	45	308.000
312.521	2.000	correct	0.337	practice a-b	face	restudy	scene	face	object	70	47	47	271	47	312.500
317.020	2.000	correct	0.365	practice a-b	face	test	object	face	scene	71	4	4	152	4	317.000
321.519	2.000	incorrect	0.314	practice a-b	face	restudy	face	object	scene	72	49	49	49	101	321.500
326.018	2.000	incorrect	0.421	practice a-b	face	test	face	scene	object	73	110	110	86	214	326.000
330.517	2.000	incorrect	0.377	practice a-b	scene	test	object	face	scene	74	22	22	170	22	330.500
335.017	2.000	don't know	0.276	practice a-b	don't know	test	face	scene	object	75	112	112	88	216	335.000
339.516	2.000	correct	0.480	practice a-b	scene	restudy	face	scene	object	76	97	97	73	201	339.500
344.015	2.000	incorrect	0.723	practice a-b	scene	test	scene	object	face	77	94	94	294	146	344.000
348.514	2.000	don't know	0.256	practice a-b	don't know	test	object	face	scene	78	2	2	150	2	348.500
353.013	2.000	correct	0.298	practice a-b	face	restudy	object	face	scene	79	9	9	157	9	353.000
357.512	2.000	incorrect	0.430	practice a-b	face	test	face	object	scene	80	70	70	70	122	357.500
362.012	2.000	incorrect	0.251	practice a-b	scene	test	object	face	scene	81	18	18	166	18	362.000
366.511	2.000	don't know	0.011	practice a-b	don't know	restudy	scene	object	face	82	93	93	293	145	366.500
371.010	2.000	correct	0.263	practice a-b	scene	test	object	scene	face	83	144	144	196	248	371.000
375.509	2.000	incorrect	0.514	practice a-b	scene	test	object	face	scene	84	24	24	172	24	375.500
380.008	2.000	incorrect	0.365	practice a-b	face	restudy	face	object	scene	85	71	71	71	123	380.000
384.507	2.000	incorrect	0.608	practice a-b	face	test	face	scene	object	86	102	102	78	206	384.500
389.007	2.000	incorrect	0.501	practice a-b	scene	restudy	scene	face	object	87	37	37	261	37	389.000
393.522	2.000	incorrect	0.336	practice a-b	scene	restudy	scene	face	object	88	25	25	249	25	393.500
398.021	2.000	incorrect	0.564	practice a-b	scene	restudy	scene	object	face	89	85	85	285	137	398.000
402.521	2.000	correct	0.336	practice a-b	scene	restudy	face	scene	object	90	101	101	77	205	402.500
407.020	2.000	correct	0.356	practice a-b	scene	test	object	scene	face	91	134	134	186	238	407.000
411.519	2.000	correct	0.534	practice a-b	face	restudy	scene	face	object	92	35	35	259	35	411.500
416.018	2.000	correct	0.345	practice a-b	face	test	object	face	scene	93	6	6	154	6	416.000
420.517	2.000	don't know	0.838	practice a-b	don't know	restudy	object	face	scene	94	15	15	163	15	420.500
425.017	2.000	incorrect	0.464	practice a-b	face	test	face	scene	object	95	118	118	94	222	425.000
429.516	2.000	incorrect	0.470	practice a-b	scene	restudy	object	face	scene	96	13	13	161	13	429.500
434.015	2.000	correct	0.337	practice a-b	face	test	object	face	scene	97	8	8	156	8	434.000
438.514	2.000	don't know	0.374	practice a-b	don't know	restudy	object	face	scene	98	21	21	169	21	438.500
443.013	2.000	incorrect	0.377	practice a-b	face	restudy	face	scene	object	99	103	103	79	207	443.000
447.513	2.000	correct	0.877	practice a-b	scene	restudy	face	scene	object	100	111	111	87	215	447.500
452.012	2.000	incorrect	0.441	practice a-b	object	test	scene	face	object	101	42	42	266	42	452.000
456.511	2.000	incorrect	0.405	practice a-b	face	restudy	face	object	scene	102	67	67	67	119	456.500
461.010	2.000	don't know	0.441	practice a-b	don't know	test	object	scene	face	103	140	140	192	244	461.000
465.509	2.000	incorrect	0.430	practice a-b	scene	restudy	face	object	scene	104	69	69	69	121	465.500
470.008	2.000	correct	0.856	practice a-b	object	restudy	scene	object	face	105	73	73	273	125	470.000
474.507	2.000	don't know	0.661	practice a-b	don't know	restudy	scene	object	face	106	87	87	287	139	474.500
479.007	2.000	incorrect	0.474	practice a-b	scene	test	scene	object	face	107	84	84	284	136	479.000
483.523	2.000	incorrect	0.389	practice a-b	object	restudy	object	face	scene	108	19	19	167	19	483.500
488.022	2.000	incorrect	0.945	practice a-b	scene	test	scene	face	object	109	36	36	260	36	488.000
492.521	2.000	incorrect	0.572	practice a-b	face	restudy	object	scene	face	110	131	131	183	235	492.500
497.020	2.000	incorrect	0.378	practice a-b	face	test	object	scene	face	111	130	130	182	234	497.000
501.519	2.000	incorrect	0.581	practice a-b	object	test	scene	face	object	112	44	44	268	44	501.500
506.018	2.000	no response	n/a	practice a-b	no response	restudy	object	face	scene	113	17	17	165	17	506.000
510.518	2.000	correct	0.791	practice a-b	face	restudy	scene	face	object	114	31	31	255	31	510.500
515.017	2.000	don't know	0.479	practice a-b	don't know	restudy	face	object	scene	115	53	53	53	105	515.000
519.516	2.000	correct	0.753	practice a-b	face	restudy	scene	face	object	116	29	29	253	29	519.500
524.015	2.000	correct	0.622	practice a-b	face	test	scene	face	object	117	28	28	252	28	524.000
528.514	2.000	correct	0.458	practice a-b	face	test	scene	face	object	118	38	38	262	38	528.500
533.013	2.000	incorrect	0.407	practice a-b	face	restudy	object	scene	face	119	133	133	185	237	533.000
537.513	2.000	don't know	0.517	practice a-b	don't know	test	face	object	scene	120	72	72	72	124	537.500
542.012	2.000	correct	0.784	practice a-b	object	test	face	object	scene	121	54	54	54	106	542.000
546.511	2.000	correct	0.549	practice a-b	scene	restudy	face	scene	object	122	119	119	95	223	546.500
551.010	2.000	incorrect	0.873	practice a-b	face	restudy	object	scene	face	123	125	125	177	229	551.000
555.509	2.000	correct	0.982	practice a-b	scene	test	face	scene	object	124	100	100	76	204	555.500
560.009	2.000	correct	0.795	practice a-b	scene	test	face	scene	object	125	116	116	92	220	560.000
564.508	2.000	correct	0.376	practice a-b	scene	test	object	scene	face	126	128	128	180	232	564.500
569.007	2.000	incorrect	0.349	practice a-b	scene	restudy	object	face	scene	127	7	7	155	7	569.000
573.523	2.000	correct	0.320	practice a-b	object	restudy	face	object	scene	128	65	65	65	117	573.500
578.022	2.000	incorrect	0.316	practice a-b	face	restudy	face	scene	object	129	117	117	93	221	578.000
582.521	2.000	correct	0.472	practice a-b	face	test	object	face	scene	130	16	16	164	16	582.500
587.020	2.000	incorrect	0.780	practice a-b	face	test	scene	object	face	131	80	80	280	132	587.000
591.520	2.000	incorrect	0.369	practice a-b	scene	test	face	object	scene	132	50	50	50	102	591.500
596.019	2.000	don't know	0.247	practice a-b	don't know	restudy	object	scene	face	133	143	143	195	247	596.000
600.518	2.000	correct	0.362	practice a-b	scene	restudy	object	scene	face	134	129	129	181	233	600.500
605.017	2.000	incorrect	0.287	practice a-b	scene	test	object	face	scene	135	20	20	168	20	605.000
609.516	2.000	incorrect	0.482	practice a-b	face	test	face	scene	object	136	98	98	74	202	609.500
614.015	2.000	correct	0.495	practice a-b	object	restudy	face	object	scene	137	51	51	51	103	614.000
618.515	2.000	incorrect	0.428	practice a-b	scene	test	scene	face	object	138	32	32	256	32	618.500
623.014	2.000	incorrect	0.383	practice a-b	face	restudy	scene	object	face	139	91	91	291	143	623.000
627.513	2.000	correct	0.460	practice a-b	scene	test	object	scene	face	140	136	136	188	240	627.500
632.012	2.000	correct	0.488	practice a-b	scene	test	object	scene	face	141	126	126	178	230	632.000
636.511	2.000	incorrect	0.340	practice a-b	scene	test	face	object	scene	142	56	56	56	108	636.500
641.010	2.000	correct	0.359	practice a-b	object	restudy	scene	object	face	143	95	95	295	147	641.000
645.510	2.000	correct	0.787	practice a-b	scene	restudy	object	scene	face	144	135	135	187	239	645.500
2.013	2.000	no response	n/a	practice a-b	no response	restudy	object	face	scene	145	3	3	151	3	2.000
6.512	2.000	no response	n/a	practice a-b	no response	test	object	face	scene	146	22	22	170	22	6.500
11.011	2.000	incorrect	0.012	practice a-b	face	test	scene	object	face	147	90	90	290	142	11.000
15.511	2.000	incorrect	0.392	practice a-b	object	restudy	object	scene	face	148	131	131	183	235	15.500
20.010	2.000	incorrect	0.403	practice a-b	face	test	face	scene	object	149	102	102	78	206	20.000
24.509	2.000	incorrect	0.337	practice a-b	scene	test	scene	object	face	150	92	92	292	144	24.500
29.008	2.000	correct	0.115	practice a-b	object	test	face	object	scene	151	60	60	60	112	29.000
33.507	2.000	incorrect	0.414	practice a-b	face	test	scene	object	face	152	78	78	278	130	33.500
38.007	2.000	incorrect	0.370	practice a-b	scene	restudy	scene	face	object	153	41	41	265	41	38.000
42.522	2.000	incorrect	0.372	practice a-b	face	test	face	scene	object	154	118	118	94	222	42.500
47.022	2.000	correct	0.686	practice a-b	scene	restudy	object	scene	face	155	123	123	175	227	47.000
51.521	2.000	incorrect	0.353	practice a-b	face	restudy	scene	object	face	156	83	83	283	135	51.500
56.020	2.000	incorrect	0.539	practice a-b	face	restudy	face	object	scene	157	59	59	59	111	56.000
60.519	2.000	incorrect	0.528	practice a-b	scene	test	scene	object	face	158	94	94	294	146	60.500
65.018	2.000	correct	0.338	practice a-b	face	restudy	object	face	scene	159	21	21	169	21	65.000
69.517	2.000	incorrect	0.438	practice a-b	scene	restudy	face	object	scene	160	69	69	69	121	69.500
74.017	2.000	incorrect	0.457	practice a-b	face	restudy	scene	object	face	161	77	77	277	129	74.000
78.516	2.000	incorrect	0.222	practice a-b	scene	restudy	face	object	scene	162	61	61	61	113	78.500
83.015	2.000	incorrect	0.520	practice a-b	face	restudy	scene	object	face	163	93	93	293	145	83.000
87.514	2.000	incorrect	0.563	practice a-b	face	restudy	scene	object	face	164	81	81	281	133	87.500
92.013	2.000	correct	0.631	practice a-b	scene	restudy	face	scene	object	165	115	115	91	219	92.000
96.513	2.000	incorrect	0.419	practice a-b	scene	test	object	face	scene	166	20	20	168	20	96.500
101.012	2.000	incorrect	0.389	practice a-b	face	test	face	object	scene	167	68	68	68	120	101.000
105.511	2.000	correct	0.513	practice a-b	face	restudy	scene	face	object	168	37	37	261	37	105.500
110.010	2.000	incorrect	0.348	practice a-b	face	restudy	scene	object	face	169	85	85	285	137	110.000
114.509	2.000	incorrect	0.576	practice a-b	face	test	object	scene	face	170	124	124	176	228	114.500
119.008	2.000	correct	0.403	practice a-b	face	restudy	scene	face	object	171	27	27	251	27	119.000
123.508	2.000	incorrect	0.256	practice a-b	scene	test	scene	object	face	172	84	84	284	136	123.500
128.007	2.000	incorrect	0.315	practice a-b	face	test	face	scene	object	173	110	110	86	214	128.000
132.523	2.000	correct	0.503	practice a-b	object	restudy	scene	object	face	174	75	75	275	127	132.500
137.022	2.000	incorrect	0.355	practice a-b	scene	restudy	object	face	scene	175	7	7	155	7	137.000
141.521	2.000	incorrect	0.320	practice a-b	scene	test	face	object	scene	176	52	52	52	104	141.500
146.020	2.000	incorrect	0.517	practice a-b	scene	test	scene	face	object	177	40	40	264	40	146.000
150.519	2.000	incorrect	0.336	practice a-b	face	restudy	face	object	scene	178	71	71	71	123	150.500
155.018	2.000	correct	0.412	practice a-b	object	test	face	object	scene	179	50	50	50	102	155.000
159.518	2.000	correct	0.304	practice a-b	scene	restudy	face	scene	object	180	107	107	83	211	159.500
164.017	2.000	incorrect	0.427	practice a-b	scene	restudy	object	face	scene	181	15	15	163	15	164.000
168.516	2.000	incorrect	0.317	practice a-b	face	test	scene	object	face	182	80	80	280	132	168.500
173.015	2.000	correct	0.384	practice a-b	face	test	scene	face	object	183	30	30	254	30	173.000
177.514	2.000	incorrect	0.530	practice a-b	face	test	object	scene	face	184	142	142	194	246	177.500
182.014	2.000	incorrect	0.526	practice a-b	scene	test	scene	object	face	185	86	86	286	138	182.000
186.513	2.000	correct	0.473	practice a-b	face	restudy	scene	face	object	186	33	33	257	33	186.500
191.012	2.000	correct	0.573	practice a-b	scene	restudy	face	scene	object	187	105	105	81	209	191.000
195.511	2.000	incorrect	0.303	practice a-b	face	restudy	face	scene	object	188	103	103	79	207	195.500
200.010	2.000	correct	0.690	practice a-b	object	test	face	object	scene	189	58	58	58	110	200.000
204.509	2.000	correct	0.406	practice a-b	scene	test	face	scene	object	190	104	104	80	208	204.500
209.009	2.000	correct	0.571	practice a-b	scene	test	face	scene	object	191	108	108	84	212	209.000
213.508	2.000	incorrect	0.372	practice a-b	face	restudy	object	scene	face	192	121	121	173	225	213.500
218.007	2.000	correct	0.480	practice a-b	object	restudy	face	object	scene	193	67	67	67	119	218.000
222.506	2.000	incorrect	0.284	practice a-b	face	restudy	object	scene	face	194	133	133	185	237	222.500
227.022	2.000	incorrect	0.456	practice a-b	object	test	scene	face	object	195	36	36	260	36	227.000
231.521	2.000	incorrect	0.371	practice a-b	face	test	face	object	scene	196	62	62	62	114	231.500
236.020	2.000	correct	0.432	practice a-b	scene	test	object	scene	face	197	132	132	184	236	236.000
240.520	2.000	correct	0.723	practice a-b	scene	test	face	scene	object	198	120	120	96	224	240.500
245.019	2.000	correct	0.631	practice a-b	object	test	scene	object	face	199	74	74	274	126	245.000
249.518	2.000	correct	0.356	practice a-b	face	test	scene	face	object	200	26	26	250	26	249.500
254.017	2.000	incorrect	0.520	practice a-b	scene	restudy	object	face	scene	201	11	11	159	11	254.000
258.516	2.000	correct	0.404	practice a-b	object	restudy	face	object	scene	202	53	53	53	105	258.500
263.015	2.000	incorrect	0.480	practice a-b	scene	test	face	object	scene	203	70	70	70	122	263.000
267.515	2.000	correct	0.339	practice a-b	face	restudy	scene	face	object	204	39	39	263	39	267.500
272.014	2.000	incorrect	0.527	practice a-b	scene	restudy	object	face	scene	205	5	5	153	5	272.000
276.513	2.000	correct	0.483	practice a-b	scene	restudy	object	scene	face	206	125	125	177	229	276.500
281.012	2.000	incorrect	0.352	practice a-b	scene	test	face	object	scene	207	64	64	64	116	281.000
285.511	2.000	incorrect	0.579	practice a-b	object	test	object	face	scene	208	24	24	172	24	285.500
290.010	2.000	incorrect	0.360	practice a-b	scene	restudy	face	object	scene	209	49	49	49	101	290.000
294.510	2.000	incorrect	0.778	practice a-b	face	restudy	scene	object	face	210	91	91	291	143	294.500
299.009	2.000	incorrect	0.783	practice a-b	object	restudy	object	face	scene	211	17	17	165	17	299.000
303.508	2.000	incorrect	0.676	practice a-b	scene	restudy	object	face	scene	212	13	13	161	13	303.500
308.007	2.000	incorrect	0.567	practice a-b	face	test	object	scene	face	213	122	122	174	226	308.000
312.506	2.000	correct	0.436	practice a-b	face	test	scene	face	object	214	34	34	258	34	312.500
317.022	2.000	incorrect	0.673	practice a-b	face	test	scene	object	face	215	76	76	276	128	317.000
321.521	2.000	correct	0.430	practice a-b	scene	test	face	scene	object	216	114	114	90	218	321.500
326.021	2.000	correct	0.434	practice a-b	scene	test	face	scene	object	217	98	98	74	202	326.000
330.520	2.000	incorrect	0.390	practice a-b	scene	test	object	face	scene	218	18	18	166	18	330.500
335.019	2.000	correct	0.411	practice a-b	scene	restudy	object	scene	face	219	141	141	193	245	335.000
339.518	2.000	correct	0.414	practice a-b	scene	restudy	face	scene	object	220	109	109	85	213	339.500
344.017	2.000	correct	0.506	practice a-b	scene	restudy	object	scene	face	221	139	139	191	243	344.000
348.516	2.000	no response	n/a	practice a-b	no response	restudy	object	scene	face	222	143	143	195	247	348.500
353.016	2.000	incorrect	0.443	practice a-b	scene	test	scene	face	object	223	32	32	256	32	353.000
357.515	2.000	incorrect	0.328	practice a-b	scene	restudy	scene	object	face	224	89	89	289	141	357.500
362.014	2.000	correct	0.339	practice a-b	face	test	scene	face	object	225	42	42	266	42	362.000
366.513	2.000	incorrect	0.398	practice a-b	face	test	face	scene	object	226	106	106	82	210	366.500
371.012	2.000	incorrect	0.764	practice a-b	scene	restudy	scene	face	object	227	25	25	249	25	371.000
375.511	2.000	incorrect	0.729	practice a-b	face	test	face	object	scene	228	72	72	72	124	375.500
380.011	2.000	correct	0.494	practice a-b	scene	test	face	scene	object	229	112	112	88	216	380.000
384.510	2.000	incorrect	0.437	practice a-b	scene	restudy	object	face	scene	230	19	19	167	19	384.500
389.009	2.000	incorrect	0.561	practice a-b	scene	restudy	scene	object	face	231	87	87	287	139	389.000
393.508	2.000	incorrect	0.652	practice a-b	face	restudy	face	scene	object	232	117	117	93	221	393.500
398.007	2.000	correct	0.840	practice a-b	face	test	object	face	scene	233	2	2	150	2	398.000
402.507	2.000	correct	0.589	practice a-b	face	restudy	object	face	scene	234	1	1	149	1	402.500
407.022	2.000	correct	0.529	practice a-b	face	test	scene	face	object	235	46	46	270	46	407.000
411.522	2.000	incorrect	0.995	practice a-b	face	test	scene	object	face	236	82	82	282	134	411.500
416.021	2.000	correct	0.937	practice a-b	scene	test	object	scene	face	237	138	138	190	242	416.000
420.520	2.000	incorrect	0.764	practice a-b	scene	test	scene	object	face	238	96	96	296	148	420.500
425.019	2.000	incorrect	0.904	practice a-b	object	test	object	scene	face	239	130	130	182	234	425.000
429.518	2.000	correct	0.661	practice a-b	scene	restudy	object	scene	face	240	127	127	179	231	429.500
434.017	2.000	correct	0.545	practice a-b	face	test	scene	face	object	241	44	44	268	44	434.000
438.517	2.000	correct	0.534	practice a-b	scene	test	object	scene	face	242	140	140	192	244	438.500
443.016	2.000	incorrect	0.731	practice a-b	scene	test	face	object	scene	243	66	66	66	118	443.000
447.515	2.000	incorrect	0.838	practice a-b	scene	test	face	object	scene	244	56	56	56	108	447.500
2.009	2.000	correct	0.702	practice a-b	object	test	scene	object	face	245	90	90	290	142	2.000
6.508	2.000	correct	0.403	practice a-b	object	test	scene	object	face	246	76	76	276	128	6.500
11.007	2.000	correct	0.558	practice a-b	object	restudy	scene	object	face	247	93	93	293	145	11.000
15.507	2.000	correct	0.657	practice a-b	object	restudy	face	object	scene	248	61	61	61	113	15.500
20.023	2.000	correct	0.467	practice a-b	object	restudy	scene	object	face	249	89	89	289	141	20.000
24.522	2.000	correct	0.406	practice a-b	object	test	scene	object	face	250	78	78	278	130	24.500
29.021	2.000	no response	n/a	practice a-b	no response	restudy	object	scene	face	251	121	121	173	225	29.000
33.520	2.000	correct	0.548	practice a-b	object	restudy	face	object	scene	252	69	69	69	121	33.500
38.019	2.000	correct	0.575	practice a-b	object	test	face	object	scene	253	62	62	62	114	38.000
42.518	2.000	correct	0.531	practice a-b	object	restudy	scene	object	face	254	77	77	277	129	42.500
47.018	2.000	incorrect	0.861	practice a-b	object	test	face	scene	object	255	110	110	86	214	47.000
51.517	2.000	incorrect	0.617	practice a-b	object	restudy	object	scene	face	256	131	131	183	235	51.500
56.016	2.000	correct	0.541	practice a-b	scene	test	face	scene	object	257	106	106	82	210	56.000
60.515	2.000	correct	0.520	practice a-b	object	test	face	object	scene	258	72	72	72	124	60.500
65.014	2.000	correct	0.795	practice a-b	object	test	face	object	scene	259	56	56	56	108	65.000
69.513	2.000	incorrect	0.639	practice a-b	object	restudy	object	scene	face	260	133	133	185	237	69.500
74.013	2.000	incorrect	0.585	practice a-b	object	restudy	face	scene	object	261	103	103	79	207	74.000
78.512	2.000	incorrect	0.771	practice a-b	object	restudy	object	face	scene	262	11	11	159	11	78.500
83.011	2.000	correct	0.854	practice a-b	scene	test	face	scene	object	263	102	102	78	206	83.000
87.510	2.000	correct	0.491	practice a-b	object	restudy	face	object	scene	264	71	71	71	123	87.500
92.009	2.000	incorrect	0.470	practice a-b	object	test	object	face	scene	265	22	22	170	22	92.000
96.509	2.000	correct	0.651	practice a-b	object	test	scene	object	face	266	82	82	282	134	96.500
101.008	2.000	correct	0.598	practice a-b	object	test	face	object	scene	267	64	64	64	116	101.000
105.507	2.000	correct	0.714	practice a-b	object	restudy	face	object	scene	268	59	59	59	111	105.500
110.006	2.000	correct	0.478	practice a-b	object	test	face	object	scene	269	66	66	66	118	110.000
114.522	2.000	incorrect	0.706	practice a-b	object	restudy	object	face	scene	270	13	13	161	13	114.500
119.021	2.000	correct	0.558	practice a-b	object	test	face	object	scene	271	52	52	52	104	119.000
123.520	2.000	correct	0.411	practice a-b	scene	test	object	scene	face	272	124	124	176	228	123.500
128.019	2.000	incorrect	0.510	practice a-b	object	restudy	object	face	scene	273	17	17	165	17	128.000
132.519	2.000	correct	0.658	practice a-b	object	test	scene	object	face	274	92	92	292	144	132.500
137.018	2.000	correct	0.438	practice a-b	face	restudy	scene	face	object	275	25	25	249	25	137.000
141.517	2.000	no response	n/a	practice a-b	no response	test	scene	object	face	276	94	94	294	146	141.500
146.016	2.000	correct	0.759	practice a-b	object	restudy	scene	object	face	277	87	87	287	139	146.000
150.515	2.000	correct	0.667	practice a-b	object	test	face	object	scene	278	70	70	70	122	150.500
155.014	2.000	incorrect	0.583	practice a-b	object	restudy	face	scene	object	279	117	117	93	221	155.000
159.514	2.000	correct	0.842	practice a-b	object	restudy	face	object	scene	280	49	49	49	101	159.500
164.013	2.000	incorrect	0.853	practice a-b	object	restudy	object	face	scene	281	19	19	167	19	164.000
168.512	2.000	incorrect	0.666	practice a-b	object	restudy	object	face	scene	282	5	5	153	5	168.500
173.011	2.000	correct	0.452	practice a-b	object	restudy	scene	object	face	283	81	81	281	133	173.000
177.510	2.000	correct	0.641	practice a-b	object	test	scene	object	face	284	84	84	284	136	177.500
182.010	2.000	incorrect	0.667	practice a-b	object	test	scene	face	object	285	32	32	256	32	182.000
186.509	2.000	correct	0.767	practice a-b	object	test	scene	object	face	286	96	96	296	148	186.500
191.008	2.000	correct	0.650	practice a-b	face	test	object	face	scene	287	18	18	166	18	191.000
195.507	2.000	correct	0.358	practice a-b	object	restudy	scene	object	face	288	91	91	291	143	195.500
200.006	2.000	incorrect	0.473	practice a-b	object	test	object	face	scene	289	24	24	172	24	200.000
204.522	2.000	correct	0.331	practice a-b	face	restudy	scene	face	object	290	41	41	265	41	204.500
209.021	2.000	correct	0.486	practice a-b	object	test	face	object	scene	291	68	68	68	120	209.000
213.521	2.000	incorrect	0.426	practice a-b	object	restudy	object	scene	face	292	143	143	195	247	213.500
218.020	2.000	incorrect	0.366	practice a-b	object	test	scene	face	object	293	36	36	260	36	218.000
222.519	2.000	correct	0.626	practice a-b	scene	test	object	scene	face	294	122	122	174	226	222.500
227.018	2.000	incorrect	0.557	practice a-b	object	restudy	object	face	scene	295	7	7	155	7	227.000
231.517	2.000	incorrect	0.641	practice a-b	face	restudy	scene	object	face	296	83	83	283	135	231.500
236.016	2.000	correct	0.372	practice a-b	face	test	scene	face	object	297	40	40	264	40	236.000
240.516	2.000	incorrect	0.409	practice a-b	face	test	object	scene	face	298	130	130	182	234	240.500
245.015	2.000	incorrect	0.349	practice a-b	scene	restudy	scene	object	face	299	85	85	285	137	245.000
249.514	2.000	incorrect	0.330	practice a-b	object	restudy	object	face	scene	300	15	15	163	15	249.500
254.013	2.000	correct	0.389	practice a-b	face	test	object	face	scene	301	20	20	168	20	254.000
258.512	2.000	incorrect	0.282	practice a-b	face	test	scene	object	face	302	80	80	280	132	258.500
263.012	2.000	correct	0.319	practice a-b	face	restudy	object	face	scene	303	3	3	151	3	263.000
267.511	2.000	incorrect	0.675	practice a-b	object	test	object	scene	face	304	142	142	194	246	267.500
272.010	2.000	incorrect	0.383	practice a-b	object	test	face	scene	object	305	118	118	94	222	272.000
276.509	2.000	correct	0.404	practice a-b	object	test	scene	object	face	306	86	86	286	138	276.500
2.017	2.000	no response	n/a	practice a-b	no response	restudy	object	face	scene	307	5	5	153	5	2.000
6.516	2.000	incorrect	0.017	practice a-b	face	restudy	object	scene	face	308	133	133	185	237	6.500
11.015	2.000	incorrect	0.238	practice a-b	object	restudy	face	scene	object	309	103	103	79	207	11.000
15.515	2.000	incorrect	0.354	practice a-b	scene	test	scene	face	object	310	36	36	260	36	15.500
20.014	2.000	incorrect	0.445	practice a-b	face	restudy	object	scene	face	311	131	131	183	235	20.000
24.513	2.000	correct	0.594	practice a-b	scene	restudy	object	scene	face	312	143	143	195	247	24.500
29.012	2.000	incorrect	0.352	practice a-b	scene	test	object	face	scene	313	24	24	172	24	29.000
33.511	2.000	correct	0.285	practice a-b	scene	test	face	scene	object	314	110	110	86	214	33.500
38.010	2.000	correct	0.678	practice a-b	face	restudy	object	face	scene	315	13	13	161	13	38.000
42.509	2.000	correct	0.339	practice a-b	face	restudy	object	face	scene	316	15	15	163	15	42.500
47.009	2.000	correct	0.312	practice a-b	face	restudy	object	face	scene	317	7	7	155	7	47.000
51.508	2.000	incorrect	0.307	practice a-b	face	test	scene	object	face	318	80	80	280	132	51.500
56.007	2.000	incorrect	0.304	practice a-b	scene	restudy	object	face	scene	319	17	17	165	17	56.000
60.506	2.000	incorrect	0.371	practice a-b	face	restudy	scene	object	face	320	85	85	285	137	60.500
65.022	2.000	correct	0.359	practice a-b	face	test	scene	face	object	321	32	32	256	32	65.000
69.521	2.000	incorrect	0.458	practice a-b	face	test	scene	object	face	322	94	94	294	146	69.500
74.020	2.000	correct	0.319	practice a-b	scene	test	object	scene	face	323	130	130	182	234	74.000
78.519	2.000	incorrect	0.315	practice a-b	object	test	face	scene	object	324	118	118	94	222	78.500
83.019	2.000	incorrect	0.335	practice a-b	scene	restudy	scene	object	face	325	83	83	283	135	83.000
87.518	2.000	correct	0.266	practice a-b	face	restudy	object	face	scene	326	11	11	159	11	87.500
92.017	2.000	correct	0.303	practice a-b	scene	test	object	scene	face	327	142	142	194	246	92.000
96.516	2.000	correct	0.369	practice a-b	face	restudy	object	face	scene	328	19	19	167	19	96.500
101.015	2.000	correct	0.309	practice a-b	face	test	object	face	scene	329	22	22	170	22	101.000
105.515	2.000	incorrect	0.458	practice a-b	face	restudy	face	scene	object	330	117	117	93	221	105.500
110.014	2.000	correct	0.176	practice a-b	scene	restudy	object	scene	face	331	121	121	173	225	110.000
2.016	2.000	incorrect	0.299	practice a-b	face	test	scene	object	face	332	94	94	294	146	2.000
6.515	2.000	correct	0.551	practice a-b	scene	restudy	face	scene	object	333	103	103	79	207	6.500
11.015	2.000	incorrect	0.252	practice a-b	object	restudy	object	scene	face	334	131	131	183	235	11.000
15.514	2.000	correct	0.289	practice a-b	scene	restudy	face	scene	object	335	117	117	93	221	15.500
20.013	2.000	incorrect	0.269	practice a-b	object	test	face	scene	object	336	118	118	94	222	20.000
24.512	2.000	incorrect	0.162	practice a-b	scene	restudy	object	face	scene	337	5	5	153	5	24.500
29.011	2.000	correct	0.374	practice a-b	face	restudy	object	face	scene	338	17	17	165	17	29.000
33.510	2.000	correct	0.475	practice a-b	object	restudy	scene	object	face	339	83	83	283	135	33.500
38.010	2.000	incorrect	0.457	practice a-b	scene	test	scene	object	face	340	80	80	280	132	38.000
42.509	2.000	incorrect	0.389	practice a-b	face	restudy	object	scene	face	341	133	133	185	237	42.500
47.008	2.000	correct	0.311	practice a-b	object	restudy	scene	object	face	342	85	85	285	137	47.000
51.507	2.000	correct	0.298	practice a-b	face	test	object	face	scene	343	24	24	172	24	51.500
56.006	2.000	correct	0.430	practice a-b	face	test	scene	face	object	344	36	36	260	36	56.000
2.016	2.000	correct	0.299	practice a-b	object	test	scene	object	face	345	80	80	280	132	2.000
6.515	2.000	correct	0.017	practice a-b	scene	restudy	object	scene	face	346	133	133	185	237	6.500
11.014	2.000	correct	0.269	practice a-b	scene	restudy	object	scene	face	347	131	131	183	235	11.000
15.514	2.000	correct	0.865	practice a-b	face	restudy	object	face	scene	348	5	5	153	5	15.500
20.013	2.000	incorrect	0.239	practice a-b	object	test	face	scene	object	349	118	118	94	222	20.000
24.512	2.000	incorrect	0.428	practice a-b	scene	test	scene	object	face	350	94	94	294	146	24.500
2.016	2.000	incorrect	0.241	practice a-b	object	test	face	scene	object	351	118	118	94	222	2.000
6.515	2.000	correct	0.197	practice a-b	object	test	scene	object	face	352	94	94	294	146	6.500
2.016	2.000	correct	0.328	practice a-b	scene	test	face	scene	object	353	118	118	94	222	2.000
