onset	duration	trial_type	response_time	task_type	update_cond	repetition	cate_c	cate_b	cate_o	response_type	response	subs_response	subs_score	trial_id	run_id	word_id	img_id	stim_c	stim_b	design_onset	item_position
1.014	2.000	forget	0.409	updating	retprac	1	object	face	scene	other	scene	target	remember	1	3	11	59	159	11	1.000	7
6.764	2.000	don't know	0.315	updating	retprac	1	face	scene	object	don't know	don't know	target	remember	2	3	107	35	83	211	6.755	10
11.297	2.000	forget	0.414	updating	retprac	1	scene	face	object	competitor	face	target	remember	3	3	35	107	259	35	11.276	1
16.313	2.000	forget	0.431	updating	retprac	1	face	scene	object	other	object	other	forget	4	3	105	33	81	209	16.303	2
21.529	2.000	remember	0.637	updating	restudy	1	face	object	scene	target	face	other	forget	5	3	60	12	60	112	21.515	17
27.795	2.000	remember	0.420	updating	restudy	1	face	scene	object	target	face	target	remember	6	3	108	36	84	212	27.777	24
36.561	2.000	forget	0.333	updating	retprac	1	face	object	scene	other	scene	competitor	forget	7	3	59	11	59	111	36.539	3
41.527	2.000	remember	0.335	updating	restudy	1	object	scene	face	target	object	target	remember	8	3	132	84	184	236	41.508	21
46.077	2.000	remember	0.409	updating	restudy	1	scene	face	object	target	scene	other	forget	9	3	34	106	258	34	46.064	15
50.610	2.000	forget	0.500	updating	retprac	1	face	object	scene	other	scene	target	remember	10	3	57	9	57	109	50.598	8
56.176	2.000	don't know	0.581	updating	retprac	1	object	scene	face	don't know	don't know	other	forget	11	3	129	81	181	233	56.167	6
63.742	2.000	remember	0.415	updating	retprac	1	scene	object	face	target	scene	competitor	forget	12	3	83	131	283	135	63.724	11
68.458	2.000	remember	0.323	updating	restudy	1	scene	face	object	target	scene	target	remember	13	3	36	108	260	36	68.447	18
73.974	2.000	remember	0.343	updating	restudy	1	face	object	scene	target	face	competitor	forget	14	3	58	10	58	110	73.961	20
79.007	2.000	remember	0.301	updating	restudy	1	object	face	scene	target	object	competitor	forget	15	3	10	58	158	10	78.992	14
83.724	2.000	remember	0.353	updating	restudy	1	scene	object	face	target	scene	competitor	forget	16	3	82	130	282	134	83.701	13
88.723	2.000	remember	0.274	updating	retprac	1	object	scene	face	target	object	competitor	forget	17	3	131	83	183	235	88.703	12
94.756	2.000	remember	0.304	updating	restudy	1	object	face	scene	target	object	competitor	forget	18	3	12	60	160	12	94.747	22
104.705	2.000	forget	0.275	updating	retprac	1	scene	face	object	competitor	face	competitor	forget	19	3	33	105	257	33	104.693	9
109.688	2.000	remember	0.252	updating	restudy	1	face	scene	object	target	face	target	remember	20	3	106	34	82	210	109.674	19
114.671	2.000	remember	0.469	updating	restudy	2	face	scene	object	target	face	target	remember	21	3	108	36	84	212	114.657	24
121.087	2.000	remember	0.341	updating	restudy	2	face	object	scene	target	face	other	forget	22	3	60	12	60	112	121.070	17
126.070	2.000	remember	0.333	updating	restudy	2	scene	face	object	target	scene	other	forget	23	3	34	106	258	34	126.053	15
131.369	2.000	remember	0.298	updating	restudy	2	object	scene	face	target	object	target	remember	24	3	132	84	184	236	131.348	21
137.169	2.000	forget	0.610	updating	retprac	2	scene	face	object	other	object	target	remember	25	3	35	107	259	35	137.152	1
142.035	2.000	remember	0.128	updating	retprac	2	face	object	scene	target	face	competitor	forget	26	3	59	11	59	111	142.024	3
146.851	2.000	remember	0.344	updating	restudy	1	scene	object	face	target	scene	target	remember	27	3	84	132	284	136	146.834	16
156.717	2.000	remember	0.333	updating	restudy	1	object	scene	face	target	object	target	remember	28	3	130	82	182	234	156.693	23
161.317	2.000	remember	0.318	updating	retprac	2	object	face	scene	target	object	target	remember	29	3	11	59	159	11	161.305	7
166.283	2.000	forget	0.823	updating	retprac	2	face	scene	object	other	object	other	forget	30	3	105	33	81	209	166.272	2
176.415	2.000	forget	0.394	updating	retprac	2	scene	object	face	competitor	object	competitor	forget	31	3	83	131	283	135	176.409	11
181.481	2.000	remember	0.664	updating	retprac	2	object	scene	face	target	object	other	forget	32	3	129	81	181	233	181.460	6
187.964	2.000	forget	0.342	updating	retprac	2	face	scene	object	competitor	scene	target	remember	33	3	107	35	83	211	187.954	10
194.014	2.000	forget	0.436	updating	retprac	1	object	face	scene	competitor	face	target	remember	34	3	9	57	157	9	193.993	4
199.780	2.000	remember	0.573	updating	retprac	1	scene	object	face	target	scene	target	remember	35	3	81	129	281	133	199.770	5
209.362	2.000	remember	0.311	updating	restudy	2	scene	object	face	target	scene	competitor	forget	36	3	82	130	282	134	209.340	13
214.412	2.000	remember	0.325	updating	restudy	3	object	scene	face	target	object	target	remember	37	3	132	84	184	236	214.387	21
223.444	2.000	remember	0.332	updating	restudy	2	scene	face	object	target	scene	target	remember	38	3	36	108	260	36	223.430	18
228.627	2.000	forget	0.437	updating	retprac	2	face	object	scene	competitor	object	target	remember	39	3	57	9	57	109	228.606	8
234.710	2.000	remember	0.882	updating	retprac	2	scene	face	object	target	scene	competitor	forget	40	3	33	105	257	33	234.702	9
239.293	2.000	remember	0.363	updating	restudy	2	object	face	scene	target	object	competitor	forget	41	3	12	60	160	12	239.272	22
244.542	2.000	remember	0.505	updating	restudy	3	face	object	scene	target	face	other	forget	42	3	60	12	60	112	244.523	17
249.342	2.000	remember	0.338	updating	retprac	3	object	face	scene	target	object	target	remember	43	3	11	59	159	11	249.328	7
254.308	2.000	remember	0.299	updating	restudy	3	scene	face	object	target	scene	other	forget	44	3	34	106	258	34	254.291	15
259.108	2.000	remember	0.275	updating	restudy	2	object	face	scene	target	object	competitor	forget	45	3	10	58	158	10	259.086	14
268.740	2.000	remember	0.323	updating	restudy	2	face	object	scene	target	face	competitor	forget	46	3	58	10	58	110	268.732	20
273.807	2.000	forget	0.817	updating	retprac	2	object	scene	face	competitor	scene	competitor	forget	47	3	131	83	183	235	273.785	12
278.323	2.000	remember	0.316	updating	restudy	3	face	scene	object	target	face	target	remember	48	3	108	36	84	212	278.311	24
283.522	2.000	remember	0.277	updating	retprac	3	face	scene	object	target	face	target	remember	49	3	107	35	83	211	283.515	10
288.189	2.000	remember	0.258	updating	retprac	2	object	face	scene	target	object	target	remember	50	3	9	57	157	9	288.166	4
292.788	2.000	remember	0.522	updating	retprac	3	scene	face	object	target	scene	target	remember	51	3	35	107	259	35	292.769	1
301.737	2.000	remember	0.349	updating	retprac	2	scene	object	face	target	scene	target	remember	52	3	81	129	281	133	301.731	5
306.820	2.000	remember	0.314	updating	restudy	2	object	scene	face	target	object	target	remember	53	3	130	82	182	234	306.802	23
311.453	2.000	remember	0.329	updating	restudy	2	face	scene	object	target	face	target	remember	54	3	106	34	82	210	311.434	19
317.103	2.000	remember	0.295	updating	restudy	3	object	face	scene	target	object	competitor	forget	55	3	12	60	160	12	317.093	22
322.336	2.000	no response	n/a	updating	retprac	3	scene	face	object	no response	no response	competitor	forget	56	3	33	105	257	33	322.318	9
327.002	2.000	remember	0.284	updating	restudy	2	scene	object	face	target	scene	target	remember	57	3	84	132	284	136	326.984	16
335.351	2.000	remember	0.262	updating	retprac	3	face	scene	object	target	face	other	forget	58	3	105	33	81	209	335.335	2
340.534	2.000	remember	0.287	updating	retprac	3	face	object	scene	target	face	target	remember	59	3	57	9	57	109	340.515	8
345.267	2.000	remember	0.330	updating	retprac	3	face	object	scene	target	face	competitor	forget	60	3	59	11	59	111	345.249	3
354.666	2.000	remember	0.299	updating	restudy	3	scene	object	face	target	scene	competitor	forget	61	3	82	130	282	134	354.655	13
363.165	2.000	remember	0.279	updating	restudy	3	face	object	scene	target	face	competitor	forget	62	3	58	10	58	110	363.152	20
367.965	2.000	remember	0.335	updating	retprac	3	object	face	scene	target	object	target	remember	63	3	9	57	157	9	367.948	4
372.614	2.000	remember	0.342	updating	restudy	3	scene	face	object	target	scene	target	remember	64	3	36	108	260	36	372.594	18
380.430	2.000	remember	0.037	updating	retprac	3	object	scene	face	target	object	other	forget	65	3	129	81	181	233	380.418	6
385.530	2.000	forget	0.634	updating	retprac	3	scene	object	face	competitor	object	competitor	forget	66	3	83	131	283	135	385.513	11
392.013	2.000	remember	0.311	updating	restudy	3	object	scene	face	target	object	target	remember	67	3	130	82	182	234	391.995	23
399.129	2.000	remember	0.339	updating	restudy	3	object	face	scene	target	object	competitor	forget	68	3	10	58	158	10	399.120	14
404.628	2.000	remember	0.375	updating	retprac	3	scene	object	face	target	scene	target	remember	69	3	81	129	281	133	404.620	5
413.394	2.000	remember	0.297	updating	restudy	3	scene	object	face	target	scene	target	remember	70	3	84	132	284	136	413.379	16
419.394	2.000	remember	0.353	updating	retprac	3	object	scene	face	target	object	competitor	forget	71	3	131	83	183	235	419.375	12
427.709	2.000	remember	0.293	updating	restudy	3	face	scene	object	target	face	target	remember	72	3	106	34	82	210	427.695	19
