onset	duration	trial_type	response_time	task_type	update_cond	cate_c	cate_b	cate_o	response_type	response	trial_id	run_id	word_id	img_id	stim_c	stim_b	design_onset	grate_orientation
2.015	3.000	forget	0.742	retrieval	restudy	object	scene	face	competitor	scene	1	1	128	80	180	232	2.0	n/a
7.050	2.023	correct	2.023	grate	n/a	n/a	n/a	n/a	n/a	n/a	1	1	n/a	n/a	n/a	n/a	n/a	right
9.583	0.867	correct	0.867	grate	n/a	n/a	n/a	n/a	n/a	n/a	1	1	n/a	n/a	n/a	n/a	n/a	right
10.966	1.132	correct	1.132	grate	n/a	n/a	n/a	n/a	n/a	n/a	1	1	n/a	n/a	n/a	n/a	n/a	left
12.615	0.100	incorrect	0.100	grate	n/a	n/a	n/a	n/a	n/a	n/a	1	1	n/a	n/a	n/a	n/a	n/a	left
14.014	3.000	forget	0.967	retrieval	restudy	object	face	scene	other	scene	2	1	6	54	154	6	14.0	n/a
19.049	1.048	correct	1.048	grate	n/a	n/a	n/a	n/a	n/a	n/a	2	1	n/a	n/a	n/a	n/a	n/a	left
20.615	1.050	correct	1.050	grate	n/a	n/a	n/a	n/a	n/a	n/a	2	1	n/a	n/a	n/a	n/a	n/a	right
22.181	1.052	correct	1.052	grate	n/a	n/a	n/a	n/a	n/a	n/a	2	1	n/a	n/a	n/a	n/a	n/a	right
23.748	0.766	incorrect	0.766	grate	n/a	n/a	n/a	n/a	n/a	n/a	2	1	n/a	n/a	n/a	n/a	n/a	right
26.013	3.000	forget	0.799	retrieval	restudy	object	face	scene	other	scene	3	1	2	50	150	2	26.0	n/a
31.048	1.321	correct	1.321	grate	n/a	n/a	n/a	n/a	n/a	n/a	3	1	n/a	n/a	n/a	n/a	n/a	left
32.880	0.713	correct	0.713	grate	n/a	n/a	n/a	n/a	n/a	n/a	3	1	n/a	n/a	n/a	n/a	n/a	right
34.114	0.639	correct	0.639	grate	n/a	n/a	n/a	n/a	n/a	n/a	3	1	n/a	n/a	n/a	n/a	n/a	right
35.263	0.849	correct	0.849	grate	n/a	n/a	n/a	n/a	n/a	n/a	3	1	n/a	n/a	n/a	n/a	n/a	left
36.630	0.100	incorrect	0.100	grate	n/a	n/a	n/a	n/a	n/a	n/a	3	1	n/a	n/a	n/a	n/a	n/a	left
38.012	3.000	remember	0.712	retrieval	retprac	face	scene	object	target	face	4	1	99	27	75	203	38.0	n/a
43.047	1.209	correct	1.209	grate	n/a	n/a	n/a	n/a	n/a	n/a	4	1	n/a	n/a	n/a	n/a	n/a	left
44.779	0.805	correct	0.805	grate	n/a	n/a	n/a	n/a	n/a	n/a	4	1	n/a	n/a	n/a	n/a	n/a	right
46.096	0.664	correct	0.664	grate	n/a	n/a	n/a	n/a	n/a	n/a	4	1	n/a	n/a	n/a	n/a	n/a	right
47.279	0.601	correct	0.601	grate	n/a	n/a	n/a	n/a	n/a	n/a	4	1	n/a	n/a	n/a	n/a	n/a	left
48.395	0.117	incorrect	0.117	grate	n/a	n/a	n/a	n/a	n/a	n/a	4	1	n/a	n/a	n/a	n/a	n/a	left
50.011	3.000	forget	0.680	retrieval	restudy	face	scene	object	competitor	scene	5	1	100	28	76	204	50.0	n/a
55.046	0.818	correct	0.818	grate	n/a	n/a	n/a	n/a	n/a	n/a	5	1	n/a	n/a	n/a	n/a	n/a	left
56.378	0.590	correct	0.590	grate	n/a	n/a	n/a	n/a	n/a	n/a	5	1	n/a	n/a	n/a	n/a	n/a	left
57.478	0.618	correct	0.618	grate	n/a	n/a	n/a	n/a	n/a	n/a	5	1	n/a	n/a	n/a	n/a	n/a	right
58.611	0.572	correct	0.572	grate	n/a	n/a	n/a	n/a	n/a	n/a	5	1	n/a	n/a	n/a	n/a	n/a	right
59.695	0.545	correct	0.545	grate	n/a	n/a	n/a	n/a	n/a	n/a	5	1	n/a	n/a	n/a	n/a	n/a	left
60.761	0.100	incorrect	0.100	grate	n/a	n/a	n/a	n/a	n/a	n/a	5	1	n/a	n/a	n/a	n/a	n/a	left
62.010	3.000	forget	0.681	retrieval	retprac	scene	object	face	competitor	object	6	1	73	121	273	125	62.0	n/a
67.045	0.875	correct	0.875	grate	n/a	n/a	n/a	n/a	n/a	n/a	6	1	n/a	n/a	n/a	n/a	n/a	left
68.427	0.572	correct	0.572	grate	n/a	n/a	n/a	n/a	n/a	n/a	6	1	n/a	n/a	n/a	n/a	n/a	right
69.510	0.513	correct	0.513	grate	n/a	n/a	n/a	n/a	n/a	n/a	6	1	n/a	n/a	n/a	n/a	n/a	right
70.544	0.560	correct	0.560	grate	n/a	n/a	n/a	n/a	n/a	n/a	6	1	n/a	n/a	n/a	n/a	n/a	left
71.610	0.558	correct	0.558	grate	n/a	n/a	n/a	n/a	n/a	n/a	6	1	n/a	n/a	n/a	n/a	n/a	left
72.677	0.100	incorrect	0.100	grate	n/a	n/a	n/a	n/a	n/a	n/a	6	1	n/a	n/a	n/a	n/a	n/a	left
74.009	3.000	no response	n/a	retrieval	retprac	face	scene	object	no response	no response	7	1	97	25	73	201	74.0	n/a
79.043	0.828	correct	0.828	grate	n/a	n/a	n/a	n/a	n/a	n/a	7	1	n/a	n/a	n/a	n/a	n/a	left
80.393	0.702	correct	0.702	grate	n/a	n/a	n/a	n/a	n/a	n/a	7	1	n/a	n/a	n/a	n/a	n/a	right
81.609	0.566	correct	0.566	grate	n/a	n/a	n/a	n/a	n/a	n/a	7	1	n/a	n/a	n/a	n/a	n/a	right
82.693	0.610	correct	0.610	grate	n/a	n/a	n/a	n/a	n/a	n/a	7	1	n/a	n/a	n/a	n/a	n/a	left
83.826	0.469	correct	0.469	grate	n/a	n/a	n/a	n/a	n/a	n/a	7	1	n/a	n/a	n/a	n/a	n/a	right
84.809	0.100	incorrect	0.100	grate	n/a	n/a	n/a	n/a	n/a	n/a	7	1	n/a	n/a	n/a	n/a	n/a	right
86.008	3.000	forget	0.507	retrieval	retprac	scene	object	face	other	face	8	1	75	123	275	127	86.0	n/a
91.042	0.597	correct	0.597	grate	n/a	n/a	n/a	n/a	n/a	n/a	8	1	n/a	n/a	n/a	n/a	n/a	left
92.158	0.489	correct	0.489	grate	n/a	n/a	n/a	n/a	n/a	n/a	8	1	n/a	n/a	n/a	n/a	n/a	right
93.158	0.472	correct	0.472	grate	n/a	n/a	n/a	n/a	n/a	n/a	8	1	n/a	n/a	n/a	n/a	n/a	left
94.142	0.665	correct	0.665	grate	n/a	n/a	n/a	n/a	n/a	n/a	8	1	n/a	n/a	n/a	n/a	n/a	left
95.325	0.418	correct	0.418	grate	n/a	n/a	n/a	n/a	n/a	n/a	8	1	n/a	n/a	n/a	n/a	n/a	left
96.258	0.250	incorrect	0.250	grate	n/a	n/a	n/a	n/a	n/a	n/a	8	1	n/a	n/a	n/a	n/a	n/a	left
98.007	3.000	remember	0.579	retrieval	restudy	face	scene	object	target	face	9	1	104	32	80	208	98.0	n/a
103.041	0.845	correct	0.845	grate	n/a	n/a	n/a	n/a	n/a	n/a	9	1	n/a	n/a	n/a	n/a	n/a	left
104.407	0.871	correct	0.871	grate	n/a	n/a	n/a	n/a	n/a	n/a	9	1	n/a	n/a	n/a	n/a	n/a	left
105.790	0.680	correct	0.680	grate	n/a	n/a	n/a	n/a	n/a	n/a	9	1	n/a	n/a	n/a	n/a	n/a	right
106.990	0.592	correct	0.592	grate	n/a	n/a	n/a	n/a	n/a	n/a	9	1	n/a	n/a	n/a	n/a	n/a	left
108.090	0.417	incorrect	0.417	grate	n/a	n/a	n/a	n/a	n/a	n/a	9	1	n/a	n/a	n/a	n/a	n/a	left
110.022	3.000	forget	0.547	retrieval	retprac	scene	face	object	other	object	10	1	31	103	255	31	110.0	n/a
115.057	0.725	correct	0.725	grate	n/a	n/a	n/a	n/a	n/a	n/a	10	1	n/a	n/a	n/a	n/a	n/a	right
116.306	0.500	correct	0.500	grate	n/a	n/a	n/a	n/a	n/a	n/a	10	1	n/a	n/a	n/a	n/a	n/a	left
117.323	0.491	correct	0.491	grate	n/a	n/a	n/a	n/a	n/a	n/a	10	1	n/a	n/a	n/a	n/a	n/a	left
118.323	0.445	correct	0.445	grate	n/a	n/a	n/a	n/a	n/a	n/a	10	1	n/a	n/a	n/a	n/a	n/a	left
119.289	0.453	correct	0.453	grate	n/a	n/a	n/a	n/a	n/a	n/a	10	1	n/a	n/a	n/a	n/a	n/a	left
120.256	0.267	incorrect	0.267	grate	n/a	n/a	n/a	n/a	n/a	n/a	10	1	n/a	n/a	n/a	n/a	n/a	right
122.021	3.000	forget	0.604	retrieval	restudy	scene	face	object	competitor	face	11	1	28	100	252	28	122.0	n/a
127.056	0.742	correct	0.742	grate	n/a	n/a	n/a	n/a	n/a	n/a	11	1	n/a	n/a	n/a	n/a	n/a	right
128.305	0.581	correct	0.581	grate	n/a	n/a	n/a	n/a	n/a	n/a	11	1	n/a	n/a	n/a	n/a	n/a	left
129.405	0.441	correct	0.441	grate	n/a	n/a	n/a	n/a	n/a	n/a	11	1	n/a	n/a	n/a	n/a	n/a	right
130.355	0.435	correct	0.435	grate	n/a	n/a	n/a	n/a	n/a	n/a	11	1	n/a	n/a	n/a	n/a	n/a	left
131.305	0.397	correct	0.397	grate	n/a	n/a	n/a	n/a	n/a	n/a	11	1	n/a	n/a	n/a	n/a	n/a	right
132.221	0.300	incorrect	0.300	grate	n/a	n/a	n/a	n/a	n/a	n/a	11	1	n/a	n/a	n/a	n/a	n/a	right
134.020	3.000	forget	0.613	retrieval	restudy	scene	object	face	other	face	12	1	74	122	274	126	134.0	n/a
139.055	0.896	correct	0.896	grate	n/a	n/a	n/a	n/a	n/a	n/a	12	1	n/a	n/a	n/a	n/a	n/a	left
140.471	0.719	correct	0.719	grate	n/a	n/a	n/a	n/a	n/a	n/a	12	1	n/a	n/a	n/a	n/a	n/a	right
141.704	0.438	correct	0.438	grate	n/a	n/a	n/a	n/a	n/a	n/a	12	1	n/a	n/a	n/a	n/a	n/a	right
142.654	1.867	incorrect	1.867	grate	n/a	n/a	n/a	n/a	n/a	n/a	12	1	n/a	n/a	n/a	n/a	n/a	right
146.019	3.000	forget	0.533	retrieval	retprac	scene	object	face	other	face	13	1	77	125	277	129	146.0	n/a
151.053	0.689	correct	0.689	grate	n/a	n/a	n/a	n/a	n/a	n/a	13	1	n/a	n/a	n/a	n/a	n/a	left
152.253	0.456	correct	0.456	grate	n/a	n/a	n/a	n/a	n/a	n/a	13	1	n/a	n/a	n/a	n/a	n/a	left
153.220	0.593	correct	0.593	grate	n/a	n/a	n/a	n/a	n/a	n/a	13	1	n/a	n/a	n/a	n/a	n/a	right
154.336	0.525	correct	0.525	grate	n/a	n/a	n/a	n/a	n/a	n/a	13	1	n/a	n/a	n/a	n/a	n/a	left
155.369	0.484	correct	0.484	grate	n/a	n/a	n/a	n/a	n/a	n/a	13	1	n/a	n/a	n/a	n/a	n/a	left
156.369	0.150	incorrect	0.150	grate	n/a	n/a	n/a	n/a	n/a	n/a	13	1	n/a	n/a	n/a	n/a	n/a	left
158.018	3.000	forget	0.535	retrieval	retprac	scene	face	object	competitor	face	14	1	29	101	253	29	158.0	n/a
163.053	0.752	correct	0.752	grate	n/a	n/a	n/a	n/a	n/a	n/a	14	1	n/a	n/a	n/a	n/a	n/a	right
164.319	0.518	correct	0.518	grate	n/a	n/a	n/a	n/a	n/a	n/a	14	1	n/a	n/a	n/a	n/a	n/a	right
165.352	0.557	correct	0.557	grate	n/a	n/a	n/a	n/a	n/a	n/a	14	1	n/a	n/a	n/a	n/a	n/a	right
166.418	0.466	correct	0.466	grate	n/a	n/a	n/a	n/a	n/a	n/a	14	1	n/a	n/a	n/a	n/a	n/a	right
167.402	0.427	correct	0.427	grate	n/a	n/a	n/a	n/a	n/a	n/a	14	1	n/a	n/a	n/a	n/a	n/a	right
168.352	0.167	incorrect	0.167	grate	n/a	n/a	n/a	n/a	n/a	n/a	14	1	n/a	n/a	n/a	n/a	n/a	right
170.017	3.000	forget	0.479	retrieval	retprac	object	face	scene	competitor	face	15	1	3	51	151	3	170.0	n/a
175.052	0.529	correct	0.529	grate	n/a	n/a	n/a	n/a	n/a	n/a	15	1	n/a	n/a	n/a	n/a	n/a	right
176.101	0.425	correct	0.425	grate	n/a	n/a	n/a	n/a	n/a	n/a	15	1	n/a	n/a	n/a	n/a	n/a	right
177.034	0.458	correct	0.458	grate	n/a	n/a	n/a	n/a	n/a	n/a	15	1	n/a	n/a	n/a	n/a	n/a	right
178.001	0.460	correct	0.460	grate	n/a	n/a	n/a	n/a	n/a	n/a	15	1	n/a	n/a	n/a	n/a	n/a	right
178.984	0.828	correct	0.828	grate	n/a	n/a	n/a	n/a	n/a	n/a	15	1	n/a	n/a	n/a	n/a	n/a	right
180.334	0.183	incorrect	0.183	grate	n/a	n/a	n/a	n/a	n/a	n/a	15	1	n/a	n/a	n/a	n/a	n/a	left
182.016	3.000	forget	0.552	retrieval	retprac	object	face	scene	competitor	face	16	1	1	49	149	1	182.0	n/a
187.051	0.745	correct	0.745	grate	n/a	n/a	n/a	n/a	n/a	n/a	16	1	n/a	n/a	n/a	n/a	n/a	right
188.316	0.640	correct	0.640	grate	n/a	n/a	n/a	n/a	n/a	n/a	16	1	n/a	n/a	n/a	n/a	n/a	right
189.466	0.650	correct	0.650	grate	n/a	n/a	n/a	n/a	n/a	n/a	16	1	n/a	n/a	n/a	n/a	n/a	right
190.633	0.731	correct	0.731	grate	n/a	n/a	n/a	n/a	n/a	n/a	16	1	n/a	n/a	n/a	n/a	n/a	left
191.883	0.633	incorrect	0.633	grate	n/a	n/a	n/a	n/a	n/a	n/a	16	1	n/a	n/a	n/a	n/a	n/a	left
194.015	3.000	forget	0.696	retrieval	restudy	scene	face	object	competitor	face	17	1	32	104	256	32	194.0	n/a
199.049	0.818	correct	0.818	grate	n/a	n/a	n/a	n/a	n/a	n/a	17	1	n/a	n/a	n/a	n/a	n/a	left
200.382	0.782	correct	0.782	grate	n/a	n/a	n/a	n/a	n/a	n/a	17	1	n/a	n/a	n/a	n/a	n/a	right
201.682	0.706	correct	0.706	grate	n/a	n/a	n/a	n/a	n/a	n/a	17	1	n/a	n/a	n/a	n/a	n/a	right
202.898	0.577	correct	0.577	grate	n/a	n/a	n/a	n/a	n/a	n/a	17	1	n/a	n/a	n/a	n/a	n/a	left
203.998	0.517	incorrect	0.517	grate	n/a	n/a	n/a	n/a	n/a	n/a	17	1	n/a	n/a	n/a	n/a	n/a	left
206.014	3.000	no response	n/a	retrieval	retprac	object	scene	face	no response	no response	18	1	125	77	177	229	206.0	n/a
211.048	0.747	correct	0.747	grate	n/a	n/a	n/a	n/a	n/a	n/a	18	1	n/a	n/a	n/a	n/a	n/a	left
212.314	0.785	correct	0.785	grate	n/a	n/a	n/a	n/a	n/a	n/a	18	1	n/a	n/a	n/a	n/a	n/a	left
213.614	0.677	correct	0.677	grate	n/a	n/a	n/a	n/a	n/a	n/a	18	1	n/a	n/a	n/a	n/a	n/a	right
214.814	1.700	incorrect	1.700	grate	n/a	n/a	n/a	n/a	n/a	n/a	18	1	n/a	n/a	n/a	n/a	n/a	right
218.013	3.000	forget	0.378	retrieval	retprac	object	scene	face	competitor	scene	19	1	121	73	173	225	218.0	n/a
223.047	0.908	correct	0.908	grate	n/a	n/a	n/a	n/a	n/a	n/a	19	1	n/a	n/a	n/a	n/a	n/a	left
224.463	0.828	correct	0.828	grate	n/a	n/a	n/a	n/a	n/a	n/a	19	1	n/a	n/a	n/a	n/a	n/a	left
225.813	2.700	incorrect	2.700	grate	n/a	n/a	n/a	n/a	n/a	n/a	19	1	n/a	n/a	n/a	n/a	n/a	right
230.012	3.000	forget	0.843	retrieval	retprac	face	object	scene	competitor	object	20	1	53	5	53	105	230.0	n/a
235.046	0.981	correct	0.981	grate	n/a	n/a	n/a	n/a	n/a	n/a	20	1	n/a	n/a	n/a	n/a	n/a	left
236.546	0.897	correct	0.897	grate	n/a	n/a	n/a	n/a	n/a	n/a	20	1	n/a	n/a	n/a	n/a	n/a	left
237.962	0.737	correct	0.737	grate	n/a	n/a	n/a	n/a	n/a	n/a	20	1	n/a	n/a	n/a	n/a	n/a	right
239.212	0.551	correct	0.551	grate	n/a	n/a	n/a	n/a	n/a	n/a	20	1	n/a	n/a	n/a	n/a	n/a	right
240.278	0.233	incorrect	0.233	grate	n/a	n/a	n/a	n/a	n/a	n/a	20	1	n/a	n/a	n/a	n/a	n/a	left
242.011	3.000	forget	0.611	retrieval	restudy	scene	face	object	competitor	face	21	1	30	102	254	30	242.0	n/a
247.045	4.030	correct	4.030	grate	n/a	n/a	n/a	n/a	n/a	n/a	21	1	n/a	n/a	n/a	n/a	n/a	left
251.594	0.917	incorrect	0.917	grate	n/a	n/a	n/a	n/a	n/a	n/a	21	1	n/a	n/a	n/a	n/a	n/a	left
254.009	3.000	forget	0.629	retrieval	restudy	face	object	scene	competitor	object	22	1	52	4	52	104	254.0	n/a
259.044	4.182	correct	4.182	grate	n/a	n/a	n/a	n/a	n/a	n/a	22	1	n/a	n/a	n/a	n/a	n/a	left
263.743	0.766	incorrect	0.766	grate	n/a	n/a	n/a	n/a	n/a	n/a	22	1	n/a	n/a	n/a	n/a	n/a	right
266.009	3.000	forget	0.917	retrieval	retprac	scene	face	object	competitor	face	23	1	27	99	251	27	266.0	n/a
271.043	5.465	incorrect	5.465	grate	n/a	n/a	n/a	n/a	n/a	n/a	23	1	n/a	n/a	n/a	n/a	n/a	left
278.007	3.000	remember	0.630	retrieval	restudy	face	scene	object	target	face	24	1	98	26	74	202	278.0	n/a
283.042	1.727	correct	1.727	grate	n/a	n/a	n/a	n/a	n/a	n/a	24	1	n/a	n/a	n/a	n/a	n/a	right
285.291	0.958	correct	0.958	grate	n/a	n/a	n/a	n/a	n/a	n/a	24	1	n/a	n/a	n/a	n/a	n/a	right
286.758	1.750	incorrect	1.750	grate	n/a	n/a	n/a	n/a	n/a	n/a	24	1	n/a	n/a	n/a	n/a	n/a	left
290.006	3.000	forget	0.422	retrieval	restudy	object	scene	face	other	face	25	1	126	78	178	230	290.0	n/a
295.041	2.344	correct	2.344	grate	n/a	n/a	n/a	n/a	n/a	n/a	25	1	n/a	n/a	n/a	n/a	n/a	right
297.907	0.942	correct	0.942	grate	n/a	n/a	n/a	n/a	n/a	n/a	25	1	n/a	n/a	n/a	n/a	n/a	left
299.373	0.612	correct	0.612	grate	n/a	n/a	n/a	n/a	n/a	n/a	25	1	n/a	n/a	n/a	n/a	n/a	right
300.506	0.100	incorrect	0.100	grate	n/a	n/a	n/a	n/a	n/a	n/a	25	1	n/a	n/a	n/a	n/a	n/a	left
302.022	3.000	forget	0.558	retrieval	retprac	object	face	scene	competitor	face	26	1	7	55	155	7	302.0	n/a
307.056	5.466	incorrect	5.466	grate	n/a	n/a	n/a	n/a	n/a	n/a	26	1	n/a	n/a	n/a	n/a	n/a	left
314.021	3.000	remember	0.599	retrieval	restudy	face	object	scene	target	face	27	1	50	2	50	102	314.0	n/a
319.056	1.177	correct	1.177	grate	n/a	n/a	n/a	n/a	n/a	n/a	27	1	n/a	n/a	n/a	n/a	n/a	right
320.755	1.054	correct	1.054	grate	n/a	n/a	n/a	n/a	n/a	n/a	27	1	n/a	n/a	n/a	n/a	n/a	right
322.321	0.888	correct	0.888	grate	n/a	n/a	n/a	n/a	n/a	n/a	27	1	n/a	n/a	n/a	n/a	n/a	right
323.721	0.800	incorrect	0.800	grate	n/a	n/a	n/a	n/a	n/a	n/a	27	1	n/a	n/a	n/a	n/a	n/a	right
326.020	3.000	remember	0.688	retrieval	retprac	object	scene	face	target	object	28	1	123	75	175	227	326.0	n/a
331.054	0.970	correct	0.970	grate	n/a	n/a	n/a	n/a	n/a	n/a	28	1	n/a	n/a	n/a	n/a	n/a	right
332.537	0.823	correct	0.823	grate	n/a	n/a	n/a	n/a	n/a	n/a	28	1	n/a	n/a	n/a	n/a	n/a	left
333.870	0.578	correct	0.578	grate	n/a	n/a	n/a	n/a	n/a	n/a	28	1	n/a	n/a	n/a	n/a	n/a	right
334.970	0.550	correct	0.550	grate	n/a	n/a	n/a	n/a	n/a	n/a	28	1	n/a	n/a	n/a	n/a	n/a	left
336.036	0.475	correct	0.475	grate	n/a	n/a	n/a	n/a	n/a	n/a	28	1	n/a	n/a	n/a	n/a	n/a	right
337.020	0.100	incorrect	0.100	grate	n/a	n/a	n/a	n/a	n/a	n/a	28	1	n/a	n/a	n/a	n/a	n/a	right
338.019	3.000	forget	0.744	retrieval	restudy	scene	face	object	competitor	face	29	1	26	98	250	26	338.0	n/a
343.053	1.042	correct	1.042	grate	n/a	n/a	n/a	n/a	n/a	n/a	29	1	n/a	n/a	n/a	n/a	n/a	left
344.602	0.638	correct	0.638	grate	n/a	n/a	n/a	n/a	n/a	n/a	29	1	n/a	n/a	n/a	n/a	n/a	right
345.752	0.759	correct	0.759	grate	n/a	n/a	n/a	n/a	n/a	n/a	29	1	n/a	n/a	n/a	n/a	n/a	right
347.019	0.780	correct	0.780	grate	n/a	n/a	n/a	n/a	n/a	n/a	29	1	n/a	n/a	n/a	n/a	n/a	left
348.319	0.200	incorrect	0.200	grate	n/a	n/a	n/a	n/a	n/a	n/a	29	1	n/a	n/a	n/a	n/a	n/a	right
350.018	3.000	remember	0.378	retrieval	restudy	face	object	scene	target	face	30	1	54	6	54	106	350.0	n/a
355.052	0.587	correct	0.587	grate	n/a	n/a	n/a	n/a	n/a	n/a	30	1	n/a	n/a	n/a	n/a	n/a	right
356.151	0.512	correct	0.512	grate	n/a	n/a	n/a	n/a	n/a	n/a	30	1	n/a	n/a	n/a	n/a	n/a	right
357.185	0.471	correct	0.471	grate	n/a	n/a	n/a	n/a	n/a	n/a	30	1	n/a	n/a	n/a	n/a	n/a	right
358.168	0.623	correct	0.623	grate	n/a	n/a	n/a	n/a	n/a	n/a	30	1	n/a	n/a	n/a	n/a	n/a	right
359.301	0.706	correct	0.706	grate	n/a	n/a	n/a	n/a	n/a	n/a	30	1	n/a	n/a	n/a	n/a	n/a	left
360.518	0.100	incorrect	0.100	grate	n/a	n/a	n/a	n/a	n/a	n/a	30	1	n/a	n/a	n/a	n/a	n/a	right
362.017	3.000	forget	0.658	retrieval	restudy	scene	object	face	other	face	31	1	78	126	278	130	362.0	n/a
367.051	0.940	correct	0.940	grate	n/a	n/a	n/a	n/a	n/a	n/a	31	1	n/a	n/a	n/a	n/a	n/a	right
368.500	0.915	correct	0.915	grate	n/a	n/a	n/a	n/a	n/a	n/a	31	1	n/a	n/a	n/a	n/a	n/a	right
369.933	0.929	correct	0.929	grate	n/a	n/a	n/a	n/a	n/a	n/a	31	1	n/a	n/a	n/a	n/a	n/a	right
371.383	1.031	correct	1.031	grate	n/a	n/a	n/a	n/a	n/a	n/a	31	1	n/a	n/a	n/a	n/a	n/a	left
372.933	0.100	incorrect	0.100	grate	n/a	n/a	n/a	n/a	n/a	n/a	31	1	n/a	n/a	n/a	n/a	n/a	left
374.016	3.000	forget	0.987	retrieval	restudy	object	face	scene	competitor	face	32	1	8	56	156	8	374.0	n/a
379.050	1.501	correct	1.501	grate	n/a	n/a	n/a	n/a	n/a	n/a	32	1	n/a	n/a	n/a	n/a	n/a	left
381.066	0.749	correct	0.749	grate	n/a	n/a	n/a	n/a	n/a	n/a	32	1	n/a	n/a	n/a	n/a	n/a	right
382.332	0.770	correct	0.770	grate	n/a	n/a	n/a	n/a	n/a	n/a	32	1	n/a	n/a	n/a	n/a	n/a	left
383.616	0.900	incorrect	0.900	grate	n/a	n/a	n/a	n/a	n/a	n/a	32	1	n/a	n/a	n/a	n/a	n/a	left
386.014	3.000	forget	0.427	retrieval	retprac	face	object	scene	competitor	object	33	1	55	7	55	107	386.0	n/a
391.049	1.213	correct	1.213	grate	n/a	n/a	n/a	n/a	n/a	n/a	33	1	n/a	n/a	n/a	n/a	n/a	right
392.781	0.705	correct	0.705	grate	n/a	n/a	n/a	n/a	n/a	n/a	33	1	n/a	n/a	n/a	n/a	n/a	left
393.998	0.720	correct	0.720	grate	n/a	n/a	n/a	n/a	n/a	n/a	33	1	n/a	n/a	n/a	n/a	n/a	right
395.231	0.791	correct	0.791	grate	n/a	n/a	n/a	n/a	n/a	n/a	33	1	n/a	n/a	n/a	n/a	n/a	left
396.548	0.100	incorrect	0.100	grate	n/a	n/a	n/a	n/a	n/a	n/a	33	1	n/a	n/a	n/a	n/a	n/a	left
398.013	3.000	forget	0.916	retrieval	retprac	scene	object	face	other	face	34	1	79	127	279	131	398.0	n/a
403.048	0.878	correct	0.878	grate	n/a	n/a	n/a	n/a	n/a	n/a	34	1	n/a	n/a	n/a	n/a	n/a	left
404.447	0.607	correct	0.607	grate	n/a	n/a	n/a	n/a	n/a	n/a	34	1	n/a	n/a	n/a	n/a	n/a	right
405.564	0.642	correct	0.642	grate	n/a	n/a	n/a	n/a	n/a	n/a	34	1	n/a	n/a	n/a	n/a	n/a	left
406.713	0.676	correct	0.676	grate	n/a	n/a	n/a	n/a	n/a	n/a	34	1	n/a	n/a	n/a	n/a	n/a	right
407.914	0.600	incorrect	0.600	grate	n/a	n/a	n/a	n/a	n/a	n/a	34	1	n/a	n/a	n/a	n/a	n/a	right
410.012	3.000	forget	0.589	retrieval	restudy	object	face	scene	competitor	face	35	1	4	52	152	4	410.0	n/a
415.047	0.758	correct	0.758	grate	n/a	n/a	n/a	n/a	n/a	n/a	35	1	n/a	n/a	n/a	n/a	n/a	right
416.329	2.404	correct	2.404	grate	n/a	n/a	n/a	n/a	n/a	n/a	35	1	n/a	n/a	n/a	n/a	n/a	right
419.246	0.799	correct	0.799	grate	n/a	n/a	n/a	n/a	n/a	n/a	35	1	n/a	n/a	n/a	n/a	n/a	left
420.562	0.100	incorrect	0.100	grate	n/a	n/a	n/a	n/a	n/a	n/a	35	1	n/a	n/a	n/a	n/a	n/a	left
422.011	3.000	remember	0.606	retrieval	retprac	face	scene	object	target	face	36	1	103	31	79	207	422.0	n/a
427.046	1.207	correct	1.207	grate	n/a	n/a	n/a	n/a	n/a	n/a	36	1	n/a	n/a	n/a	n/a	n/a	left
428.761	0.572	correct	0.572	grate	n/a	n/a	n/a	n/a	n/a	n/a	36	1	n/a	n/a	n/a	n/a	n/a	right
429.845	0.577	correct	0.577	grate	n/a	n/a	n/a	n/a	n/a	n/a	36	1	n/a	n/a	n/a	n/a	n/a	right
430.945	0.700	correct	0.700	grate	n/a	n/a	n/a	n/a	n/a	n/a	36	1	n/a	n/a	n/a	n/a	n/a	right
432.161	0.350	incorrect	0.350	grate	n/a	n/a	n/a	n/a	n/a	n/a	36	1	n/a	n/a	n/a	n/a	n/a	left
434.010	3.000	forget	0.702	retrieval	restudy	face	scene	object	other	object	37	1	102	30	78	206	434.0	n/a
439.045	1.008	correct	1.008	grate	n/a	n/a	n/a	n/a	n/a	n/a	37	1	n/a	n/a	n/a	n/a	n/a	right
440.577	2.932	correct	2.932	grate	n/a	n/a	n/a	n/a	n/a	n/a	37	1	n/a	n/a	n/a	n/a	n/a	left
444.027	0.483	incorrect	0.483	grate	n/a	n/a	n/a	n/a	n/a	n/a	37	1	n/a	n/a	n/a	n/a	n/a	right
446.009	3.000	forget	0.431	retrieval	retprac	face	scene	object	competitor	scene	38	1	101	29	77	205	446.0	n/a
451.043	1.665	correct	1.665	grate	n/a	n/a	n/a	n/a	n/a	n/a	38	1	n/a	n/a	n/a	n/a	n/a	left
453.226	0.954	correct	0.954	grate	n/a	n/a	n/a	n/a	n/a	n/a	38	1	n/a	n/a	n/a	n/a	n/a	left
454.693	0.728	correct	0.728	grate	n/a	n/a	n/a	n/a	n/a	n/a	38	1	n/a	n/a	n/a	n/a	n/a	left
455.942	0.567	incorrect	0.567	grate	n/a	n/a	n/a	n/a	n/a	n/a	38	1	n/a	n/a	n/a	n/a	n/a	right
458.008	3.000	forget	0.456	retrieval	restudy	face	object	scene	other	scene	39	1	56	8	56	108	458.0	n/a
463.042	1.370	correct	1.370	grate	n/a	n/a	n/a	n/a	n/a	n/a	39	1	n/a	n/a	n/a	n/a	n/a	right
464.925	0.647	correct	0.647	grate	n/a	n/a	n/a	n/a	n/a	n/a	39	1	n/a	n/a	n/a	n/a	n/a	left
466.091	0.664	correct	0.664	grate	n/a	n/a	n/a	n/a	n/a	n/a	39	1	n/a	n/a	n/a	n/a	n/a	left
467.275	0.625	correct	0.625	grate	n/a	n/a	n/a	n/a	n/a	n/a	39	1	n/a	n/a	n/a	n/a	n/a	right
468.408	0.100	incorrect	0.100	grate	n/a	n/a	n/a	n/a	n/a	n/a	39	1	n/a	n/a	n/a	n/a	n/a	right
470.007	3.000	forget	0.609	retrieval	restudy	object	scene	face	other	face	40	1	124	76	176	228	470.0	n/a
475.041	0.971	correct	0.971	grate	n/a	n/a	n/a	n/a	n/a	n/a	40	1	n/a	n/a	n/a	n/a	n/a	left
476.524	0.760	correct	0.760	grate	n/a	n/a	n/a	n/a	n/a	n/a	40	1	n/a	n/a	n/a	n/a	n/a	left
477.807	0.797	correct	0.797	grate	n/a	n/a	n/a	n/a	n/a	n/a	40	1	n/a	n/a	n/a	n/a	n/a	right
479.124	0.553	correct	0.553	grate	n/a	n/a	n/a	n/a	n/a	n/a	40	1	n/a	n/a	n/a	n/a	n/a	right
480.190	0.317	incorrect	0.317	grate	n/a	n/a	n/a	n/a	n/a	n/a	40	1	n/a	n/a	n/a	n/a	n/a	left
482.006	3.000	remember	0.585	retrieval	retprac	face	object	scene	target	face	41	1	49	1	49	101	482.0	n/a
487.040	1.035	correct	1.035	grate	n/a	n/a	n/a	n/a	n/a	n/a	41	1	n/a	n/a	n/a	n/a	n/a	left
488.590	0.967	correct	0.967	grate	n/a	n/a	n/a	n/a	n/a	n/a	41	1	n/a	n/a	n/a	n/a	n/a	left
490.073	0.834	correct	0.834	grate	n/a	n/a	n/a	n/a	n/a	n/a	41	1	n/a	n/a	n/a	n/a	n/a	left
491.423	1.083	incorrect	1.083	grate	n/a	n/a	n/a	n/a	n/a	n/a	41	1	n/a	n/a	n/a	n/a	n/a	right
494.021	3.000	forget	0.937	retrieval	restudy	scene	object	face	other	face	42	1	76	124	276	128	494.0	n/a
499.055	2.788	correct	2.788	grate	n/a	n/a	n/a	n/a	n/a	n/a	42	1	n/a	n/a	n/a	n/a	n/a	right
502.355	2.167	incorrect	2.167	grate	n/a	n/a	n/a	n/a	n/a	n/a	42	1	n/a	n/a	n/a	n/a	n/a	right
506.020	3.000	remember	0.618	retrieval	retprac	object	scene	face	target	object	43	1	127	79	179	231	506.0	n/a
511.054	1.060	correct	1.060	grate	n/a	n/a	n/a	n/a	n/a	n/a	43	1	n/a	n/a	n/a	n/a	n/a	left
512.637	1.677	correct	1.677	grate	n/a	n/a	n/a	n/a	n/a	n/a	43	1	n/a	n/a	n/a	n/a	n/a	right
514.837	1.683	incorrect	1.683	grate	n/a	n/a	n/a	n/a	n/a	n/a	43	1	n/a	n/a	n/a	n/a	n/a	right
518.019	3.000	forget	0.717	retrieval	restudy	scene	object	face	other	face	44	1	80	128	280	132	518.0	n/a
523.053	1.397	correct	1.397	grate	n/a	n/a	n/a	n/a	n/a	n/a	44	1	n/a	n/a	n/a	n/a	n/a	right
524.970	1.161	correct	1.161	grate	n/a	n/a	n/a	n/a	n/a	n/a	44	1	n/a	n/a	n/a	n/a	n/a	right
526.653	1.453	correct	1.453	grate	n/a	n/a	n/a	n/a	n/a	n/a	44	1	n/a	n/a	n/a	n/a	n/a	right
528.619	0.100	incorrect	0.100	grate	n/a	n/a	n/a	n/a	n/a	n/a	44	1	n/a	n/a	n/a	n/a	n/a	left
530.018	3.000	forget	0.739	retrieval	retprac	face	object	scene	competitor	object	45	1	51	3	51	103	530.0	n/a
535.052	5.422	correct	5.422	grate	n/a	n/a	n/a	n/a	n/a	n/a	45	1	n/a	n/a	n/a	n/a	n/a	left
540.985	0.100	incorrect	0.100	grate	n/a	n/a	n/a	n/a	n/a	n/a	45	1	n/a	n/a	n/a	n/a	n/a	left
542.017	3.000	no response	n/a	retrieval	retprac	scene	face	object	no response	no response	46	1	25	97	249	25	542.0	n/a
547.051	1.498	correct	1.498	grate	n/a	n/a	n/a	n/a	n/a	n/a	46	1	n/a	n/a	n/a	n/a	n/a	left
549.068	0.950	correct	0.950	grate	n/a	n/a	n/a	n/a	n/a	n/a	46	1	n/a	n/a	n/a	n/a	n/a	left
550.534	0.980	correct	0.980	grate	n/a	n/a	n/a	n/a	n/a	n/a	46	1	n/a	n/a	n/a	n/a	n/a	left
552.034	0.483	incorrect	0.483	grate	n/a	n/a	n/a	n/a	n/a	n/a	46	1	n/a	n/a	n/a	n/a	n/a	left
554.016	3.000	remember	0.381	retrieval	restudy	object	scene	face	target	object	47	1	122	74	174	226	554.0	n/a
559.050	1.560	correct	1.560	grate	n/a	n/a	n/a	n/a	n/a	n/a	47	1	n/a	n/a	n/a	n/a	n/a	right
561.133	0.853	correct	0.853	grate	n/a	n/a	n/a	n/a	n/a	n/a	47	1	n/a	n/a	n/a	n/a	n/a	left
562.500	2.016	incorrect	2.016	grate	n/a	n/a	n/a	n/a	n/a	n/a	47	1	n/a	n/a	n/a	n/a	n/a	right
566.015	3.000	remember	0.630	retrieval	retprac	object	face	scene	target	object	48	1	5	53	153	5	566.0	n/a
571.049	1.232	correct	1.232	grate	n/a	n/a	n/a	n/a	n/a	n/a	48	1	n/a	n/a	n/a	n/a	n/a	left
572.799	0.658	correct	0.658	grate	n/a	n/a	n/a	n/a	n/a	n/a	48	1	n/a	n/a	n/a	n/a	n/a	right
573.965	0.571	correct	0.571	grate	n/a	n/a	n/a	n/a	n/a	n/a	48	1	n/a	n/a	n/a	n/a	n/a	left
575.049	0.536	correct	0.536	grate	n/a	n/a	n/a	n/a	n/a	n/a	48	1	n/a	n/a	n/a	n/a	n/a	right
576.098	0.416	incorrect	0.416	grate	n/a	n/a	n/a	n/a	n/a	n/a	48	1	n/a	n/a	n/a	n/a	n/a	left
