onset	duration	trial_type	response_time	task_type	response_type	trial_id	run_id	block_id	word_id	img_id	design_onset	grate_orientation
2.013	2.000	face	1.788	localizer	strong related	1	2	1	19	19	2.0	n/a
6.013	2.000	face	1.123	localizer	strong related	2	2	1	20	20	6.0	n/a
10.012	2.000	face	1.420	localizer	weak related	3	2	1	21	21	10.0	n/a
14.012	2.000	face	1.205	localizer	strong related	4	2	1	22	22	14.0	n/a
18.012	2.000	face	1.724	localizer	weak unrelated	5	2	1	23	23	18.0	n/a
22.012	2.000	face	1.580	localizer	weak unrelated	6	2	1	24	24	22.0	n/a
26.052	0.407	correct	0.407	grate	n/a	6	2	n/a	n/a	n/a	n/a	right
26.980	0.425	correct	0.425	grate	n/a	6	2	n/a	n/a	n/a	n/a	left
27.912	0.323	correct	0.323	grate	n/a	6	2	n/a	n/a	n/a	n/a	right
28.762	0.354	correct	0.354	grate	n/a	6	2	n/a	n/a	n/a	n/a	left
29.629	0.335	correct	0.335	grate	n/a	6	2	n/a	n/a	n/a	n/a	left
30.478	0.341	correct	0.341	grate	n/a	6	2	n/a	n/a	n/a	n/a	right
31.328	0.308	correct	0.308	grate	n/a	6	2	n/a	n/a	n/a	n/a	left
32.145	0.283	correct	0.283	grate	n/a	6	2	n/a	n/a	n/a	n/a	right
32.945	0.291	correct	0.291	grate	n/a	6	2	n/a	n/a	n/a	n/a	left
33.745	1.083	correct	1.083	grate	n/a	6	2	n/a	n/a	n/a	n/a	left
35.345	0.355	correct	0.355	grate	n/a	6	2	n/a	n/a	n/a	n/a	right
36.211	0.333	incorrect	0.333	grate	n/a	6	2	n/a	n/a	n/a	n/a	right
38.010	2.000	scene	2.389	localizer	strong related	7	2	2	163	219	38.0	n/a
42.010	2.000	scene	1.926	localizer	weak unrelated	8	2	2	164	220	42.0	n/a
46.010	2.000	scene	0.951	localizer	weak unrelated	9	2	2	165	221	46.0	n/a
50.010	2.000	scene	1.398	localizer	weak related	10	2	2	166	222	50.0	n/a
54.009	2.000	scene	1.334	localizer	weak related	11	2	2	167	223	54.0	n/a
58.009	2.000	scene	1.942	localizer	weak related	12	2	2	168	224	58.0	n/a
62.048	0.387	correct	0.387	grate	n/a	12	2	n/a	n/a	n/a	n/a	right
62.943	0.972	correct	0.972	grate	n/a	12	2	n/a	n/a	n/a	n/a	left
64.426	0.473	correct	0.473	grate	n/a	12	2	n/a	n/a	n/a	n/a	right
65.409	0.322	correct	0.322	grate	n/a	12	2	n/a	n/a	n/a	n/a	left
66.243	0.273	correct	0.273	grate	n/a	12	2	n/a	n/a	n/a	n/a	right
67.026	0.377	correct	0.377	grate	n/a	12	2	n/a	n/a	n/a	n/a	right
67.926	0.373	correct	0.373	grate	n/a	12	2	n/a	n/a	n/a	n/a	left
68.809	0.402	correct	0.402	grate	n/a	12	2	n/a	n/a	n/a	n/a	right
69.726	0.349	correct	0.349	grate	n/a	12	2	n/a	n/a	n/a	n/a	right
70.592	0.299	correct	0.299	grate	n/a	12	2	n/a	n/a	n/a	n/a	left
71.409	0.338	correct	0.338	grate	n/a	12	2	n/a	n/a	n/a	n/a	left
72.259	0.283	incorrect	0.283	grate	n/a	12	2	n/a	n/a	n/a	n/a	left
74.008	2.000	object	1.191	localizer	weak related	13	2	3	91	119	74.0	n/a
78.008	2.000	object	1.264	localizer	weak related	14	2	3	92	120	78.0	n/a
82.007	2.000	object	1.400	localizer	weak related	15	2	3	93	121	82.0	n/a
86.024	2.000	object	1.663	localizer	weak related	16	2	3	94	122	86.0	n/a
90.023	2.000	object	2.168	localizer	weak related	17	2	3	95	123	90.0	n/a
94.023	2.000	object	1.281	localizer	weak related	18	2	3	96	124	94.0	n/a
98.062	0.837	correct	0.837	grate	n/a	18	2	n/a	n/a	n/a	n/a	left
99.408	0.323	correct	0.323	grate	n/a	18	2	n/a	n/a	n/a	n/a	right
100.240	0.346	correct	0.346	grate	n/a	18	2	n/a	n/a	n/a	n/a	right
101.107	0.280	correct	0.280	grate	n/a	18	2	n/a	n/a	n/a	n/a	right
101.907	0.472	correct	0.472	grate	n/a	18	2	n/a	n/a	n/a	n/a	right
102.890	0.297	correct	0.297	grate	n/a	18	2	n/a	n/a	n/a	n/a	right
103.707	0.352	correct	0.352	grate	n/a	18	2	n/a	n/a	n/a	n/a	right
104.573	0.358	correct	0.358	grate	n/a	18	2	n/a	n/a	n/a	n/a	right
105.440	0.331	incorrect	0.331	grate	n/a	18	2	n/a	n/a	n/a	n/a	left
106.290	0.306	incorrect	0.306	grate	n/a	18	2	n/a	n/a	n/a	n/a	left
107.107	0.392	correct	0.392	grate	n/a	18	2	n/a	n/a	n/a	n/a	right
108.023	0.348	correct	0.348	grate	n/a	18	2	n/a	n/a	n/a	n/a	right
108.890	0.100	incorrect	0.100	grate	n/a	18	2	n/a	n/a	n/a	n/a	left
110.022	2.000	scene	1.441	localizer	strong related	19	2	4	169	225	110.0	n/a
114.022	2.000	scene	0.785	localizer	strong related	20	2	4	170	226	114.0	n/a
118.021	2.000	scene	1.714	localizer	weak related	21	2	4	171	227	118.0	n/a
122.021	2.000	scene	1.202	localizer	weak unrelated	22	2	4	172	228	122.0	n/a
126.021	2.000	scene	1.001	localizer	weak unrelated	23	2	4	173	229	126.0	n/a
130.021	2.000	scene	1.138	localizer	weak unrelated	24	2	4	174	230	130.0	n/a
134.061	0.406	correct	0.406	grate	n/a	24	2	n/a	n/a	n/a	n/a	right
134.989	0.350	correct	0.350	grate	n/a	24	2	n/a	n/a	n/a	n/a	right
135.855	0.372	correct	0.372	grate	n/a	24	2	n/a	n/a	n/a	n/a	right
136.738	0.330	correct	0.330	grate	n/a	24	2	n/a	n/a	n/a	n/a	left
137.588	0.327	correct	0.327	grate	n/a	24	2	n/a	n/a	n/a	n/a	left
138.438	0.389	correct	0.389	grate	n/a	24	2	n/a	n/a	n/a	n/a	left
139.338	0.393	correct	0.393	grate	n/a	24	2	n/a	n/a	n/a	n/a	left
140.238	0.453	correct	0.453	grate	n/a	24	2	n/a	n/a	n/a	n/a	right
141.204	0.326	correct	0.326	grate	n/a	24	2	n/a	n/a	n/a	n/a	right
142.054	0.356	correct	0.356	grate	n/a	24	2	n/a	n/a	n/a	n/a	right
142.921	0.330	correct	0.330	grate	n/a	24	2	n/a	n/a	n/a	n/a	right
143.770	0.456	correct	0.456	grate	n/a	24	2	n/a	n/a	n/a	n/a	left
144.737	0.100	incorrect	0.100	grate	n/a	24	2	n/a	n/a	n/a	n/a	right
146.020	2.000	object	1.571	localizer	weak related	25	2	5	97	125	146.0	n/a
150.019	2.000	object	1.331	localizer	weak unrelated	26	2	5	98	126	150.0	n/a
154.019	2.000	object	0.955	localizer	weak unrelated	27	2	5	99	127	154.0	n/a
158.019	2.000	object	1.115	localizer	weak related	28	2	5	100	128	158.0	n/a
162.018	2.000	object	1.332	localizer	strong unrelated	29	2	5	101	129	162.0	n/a
166.018	2.000	object	1.172	localizer	weak unrelated	30	2	5	102	130	166.0	n/a
170.058	0.488	correct	0.488	grate	n/a	30	2	n/a	n/a	n/a	n/a	left
171.069	0.317	correct	0.317	grate	n/a	30	2	n/a	n/a	n/a	n/a	left
171.902	0.476	correct	0.476	grate	n/a	30	2	n/a	n/a	n/a	n/a	right
172.902	0.340	correct	0.340	grate	n/a	30	2	n/a	n/a	n/a	n/a	left
173.752	0.490	correct	0.490	grate	n/a	30	2	n/a	n/a	n/a	n/a	right
174.752	0.347	correct	0.347	grate	n/a	30	2	n/a	n/a	n/a	n/a	right
175.618	1.344	correct	1.344	grate	n/a	30	2	n/a	n/a	n/a	n/a	left
177.485	0.437	correct	0.437	grate	n/a	30	2	n/a	n/a	n/a	n/a	right
178.435	0.471	correct	0.471	grate	n/a	30	2	n/a	n/a	n/a	n/a	left
179.418	0.400	correct	0.400	grate	n/a	30	2	n/a	n/a	n/a	n/a	right
180.335	0.216	incorrect	0.216	grate	n/a	30	2	n/a	n/a	n/a	n/a	left
182.017	2.000	face	1.333	localizer	weak related	31	2	6	25	25	182.0	n/a
186.017	2.000	face	1.133	localizer	weak related	32	2	6	26	26	186.0	n/a
190.016	2.000	face	1.758	localizer	strong related	33	2	6	27	27	190.0	n/a
194.016	2.000	face	1.567	localizer	weak unrelated	34	2	6	28	28	194.0	n/a
198.016	2.000	face	1.254	localizer	weak related	35	2	6	29	29	198.0	n/a
202.016	2.000	face	1.494	localizer	weak unrelated	36	2	6	30	30	202.0	n/a
206.055	0.555	correct	0.555	grate	n/a	36	2	n/a	n/a	n/a	n/a	left
207.134	0.340	correct	0.340	grate	n/a	36	2	n/a	n/a	n/a	n/a	left
207.983	0.251	incorrect	0.251	grate	n/a	36	2	n/a	n/a	n/a	n/a	right
208.749	0.404	correct	0.404	grate	n/a	36	2	n/a	n/a	n/a	n/a	right
209.666	0.384	correct	0.384	grate	n/a	36	2	n/a	n/a	n/a	n/a	left
210.566	0.348	correct	0.348	grate	n/a	36	2	n/a	n/a	n/a	n/a	left
211.432	0.362	correct	0.362	grate	n/a	36	2	n/a	n/a	n/a	n/a	left
212.316	0.342	correct	0.342	grate	n/a	36	2	n/a	n/a	n/a	n/a	left
213.166	0.301	correct	0.301	grate	n/a	36	2	n/a	n/a	n/a	n/a	left
213.982	0.315	correct	0.315	grate	n/a	36	2	n/a	n/a	n/a	n/a	left
214.816	0.442	correct	0.442	grate	n/a	36	2	n/a	n/a	n/a	n/a	right
215.766	0.341	correct	0.341	grate	n/a	36	2	n/a	n/a	n/a	n/a	right
216.632	0.100	incorrect	0.100	grate	n/a	36	2	n/a	n/a	n/a	n/a	right
218.014	2.000	object	1.120	localizer	weak unrelated	37	2	7	103	131	218.0	n/a
222.014	2.000	object	1.448	localizer	weak related	38	2	7	104	132	222.0	n/a
226.014	2.000	object	1.105	localizer	weak related	39	2	7	105	133	226.0	n/a
230.014	2.000	object	1.912	localizer	weak unrelated	40	2	7	106	134	230.0	n/a
234.013	2.000	object	1.624	localizer	weak unrelated	41	2	7	107	135	234.0	n/a
238.013	2.000	object	1.777	localizer	strong unrelated	42	2	7	108	136	238.0	n/a
242.053	0.429	correct	0.429	grate	n/a	42	2	n/a	n/a	n/a	n/a	left
242.998	0.372	correct	0.372	grate	n/a	42	2	n/a	n/a	n/a	n/a	right
243.880	0.329	correct	0.329	grate	n/a	42	2	n/a	n/a	n/a	n/a	left
244.730	0.272	correct	0.272	grate	n/a	42	2	n/a	n/a	n/a	n/a	right
245.514	0.392	correct	0.392	grate	n/a	42	2	n/a	n/a	n/a	n/a	right
246.414	0.388	correct	0.388	grate	n/a	42	2	n/a	n/a	n/a	n/a	left
247.313	0.313	correct	0.313	grate	n/a	42	2	n/a	n/a	n/a	n/a	right
248.147	0.263	correct	0.263	grate	n/a	42	2	n/a	n/a	n/a	n/a	left
248.930	0.288	correct	0.288	grate	n/a	42	2	n/a	n/a	n/a	n/a	right
249.730	0.279	correct	0.279	grate	n/a	42	2	n/a	n/a	n/a	n/a	left
250.530	0.472	correct	0.472	grate	n/a	42	2	n/a	n/a	n/a	n/a	left
251.513	0.377	correct	0.377	grate	n/a	42	2	n/a	n/a	n/a	n/a	left
252.413	0.133	incorrect	0.133	grate	n/a	42	2	n/a	n/a	n/a	n/a	left
254.012	2.000	face	1.490	localizer	weak unrelated	43	2	8	31	31	254.0	n/a
258.012	2.000	face	1.019	localizer	weak unrelated	44	2	8	32	32	258.0	n/a
262.011	2.000	face	1.650	localizer	weak unrelated	45	2	8	33	33	262.0	n/a
266.011	2.000	face	1.139	localizer	weak related	46	2	8	34	34	266.0	n/a
270.011	2.000	face	1.835	localizer	weak unrelated	47	2	8	35	35	270.0	n/a
274.011	2.000	face	1.226	localizer	strong related	48	2	8	36	36	274.0	n/a
278.051	0.543	correct	0.543	grate	n/a	48	2	n/a	n/a	n/a	n/a	right
279.112	0.321	correct	0.321	grate	n/a	48	2	n/a	n/a	n/a	n/a	right
279.945	0.393	correct	0.393	grate	n/a	48	2	n/a	n/a	n/a	n/a	left
280.861	0.348	correct	0.348	grate	n/a	48	2	n/a	n/a	n/a	n/a	right
281.728	0.409	correct	0.409	grate	n/a	48	2	n/a	n/a	n/a	n/a	left
282.644	0.357	correct	0.357	grate	n/a	48	2	n/a	n/a	n/a	n/a	right
283.527	0.370	correct	0.370	grate	n/a	48	2	n/a	n/a	n/a	n/a	right
284.411	0.382	correct	0.382	grate	n/a	48	2	n/a	n/a	n/a	n/a	right
285.311	0.354	correct	0.354	grate	n/a	48	2	n/a	n/a	n/a	n/a	left
286.177	0.336	correct	0.336	grate	n/a	48	2	n/a	n/a	n/a	n/a	right
287.027	0.358	correct	0.358	grate	n/a	48	2	n/a	n/a	n/a	n/a	right
287.894	0.331	incorrect	0.331	grate	n/a	48	2	n/a	n/a	n/a	n/a	left
288.744	0.100	incorrect	0.100	grate	n/a	48	2	n/a	n/a	n/a	n/a	left
290.010	2.000	scene	1.843	localizer	weak unrelated	49	2	9	175	231	290.0	n/a
294.009	2.000	scene	1.188	localizer	weak related	50	2	9	176	232	294.0	n/a
298.009	2.000	scene	1.372	localizer	weak related	51	2	9	177	233	298.0	n/a
302.009	2.000	scene	1.580	localizer	weak unrelated	52	2	9	178	234	302.0	n/a
306.008	2.000	scene	1.197	localizer	weak related	53	2	9	179	235	306.0	n/a
310.025	2.000	scene	1.301	localizer	weak unrelated	54	2	9	180	236	310.0	n/a
314.065	0.448	correct	0.448	grate	n/a	54	2	n/a	n/a	n/a	n/a	left
315.026	0.343	correct	0.343	grate	n/a	54	2	n/a	n/a	n/a	n/a	left
315.892	0.365	correct	0.365	grate	n/a	54	2	n/a	n/a	n/a	n/a	left
316.775	0.338	correct	0.338	grate	n/a	54	2	n/a	n/a	n/a	n/a	left
317.625	0.344	correct	0.344	grate	n/a	54	2	n/a	n/a	n/a	n/a	right
318.492	0.373	incorrect	0.373	grate	n/a	54	2	n/a	n/a	n/a	n/a	left
319.375	0.306	correct	0.306	grate	n/a	54	2	n/a	n/a	n/a	n/a	right
320.192	0.393	correct	0.393	grate	n/a	54	2	n/a	n/a	n/a	n/a	right
321.108	0.349	correct	0.349	grate	n/a	54	2	n/a	n/a	n/a	n/a	right
321.975	0.458	correct	0.458	grate	n/a	54	2	n/a	n/a	n/a	n/a	left
322.941	0.331	correct	0.331	grate	n/a	54	2	n/a	n/a	n/a	n/a	right
323.791	0.433	correct	0.433	grate	n/a	54	2	n/a	n/a	n/a	n/a	right
324.741	0.100	incorrect	0.100	grate	n/a	54	2	n/a	n/a	n/a	n/a	left
