onset	duration	trial_type	response_time	task_type	update_cond	repetition	cate_c	cate_b	cate_o	response_type	response	subs_response	subs_score	trial_id	run_id	word_id	img_id	stim_c	stim_b	design_onset	item_position
1.022	2.000	no response	n/a	updating	restudy	1	scene	face	object	no response	no response	target	remember	1	1	25	97	249	25	1.000	14
6.305	2.000	forget	0.830	updating	retprac	1	object	face	scene	other	scene	target	remember	2	1	4	52	152	4	6.297	12
11.538	2.000	forget	0.453	updating	retprac	1	object	scene	face	competitor	scene	competitor	forget	3	1	124	76	176	228	11.526	7
17.538	2.000	remember	0.373	updating	restudy	1	scene	face	object	target	scene	target	remember	4	1	27	99	251	27	17.523	18
22.771	2.000	remember	0.588	updating	retprac	1	object	face	scene	target	object	competitor	forget	5	1	2	50	150	2	22.749	6
29.420	2.000	remember	0.307	updating	restudy	1	scene	object	face	target	scene	other	forget	6	1	75	123	275	127	29.402	19
37.153	2.000	forget	0.597	updating	retprac	1	scene	object	face	other	face	competitor	forget	7	1	76	124	276	128	37.131	11
45.502	2.000	forget	0.720	updating	retprac	1	object	scene	face	other	face	competitor	forget	8	1	122	74	174	226	45.481	4
50.701	2.000	remember	0.352	updating	restudy	1	object	face	scene	target	object	other	forget	9	1	1	49	149	1	50.681	20
56.384	2.000	remember	0.381	updating	restudy	1	object	scene	face	target	object	target	remember	10	1	121	73	173	225	56.376	22
62.500	2.000	forget	0.338	updating	retprac	1	face	scene	object	competitor	scene	competitor	forget	11	1	98	26	74	202	62.493	9
67.117	2.000	forget	0.841	updating	retprac	1	face	object	scene	competitor	object	target	remember	12	1	50	2	50	102	67.096	10
77.582	2.000	forget	0.279	updating	retprac	1	face	object	scene	other	scene	other	forget	13	1	52	4	52	104	77.567	5
82.499	2.000	remember	0.315	updating	restudy	1	face	scene	object	target	face	competitor	forget	14	1	97	25	73	201	82.484	13
87.381	2.000	remember	0.767	updating	restudy	1	object	scene	face	target	object	target	remember	15	1	123	75	175	227	87.361	23
94.614	2.000	remember	0.262	updating	restudy	1	scene	object	face	target	scene	other	forget	16	1	73	121	273	125	94.602	15
100.047	2.000	remember	0.470	updating	retprac	2	object	face	scene	target	object	target	remember	17	1	4	52	152	4	100.027	12
104.597	2.000	remember	0.287	updating	restudy	1	face	scene	object	target	face	competitor	forget	18	1	99	27	75	203	104.586	16
109.229	2.000	remember	0.279	updating	restudy	2	scene	object	face	target	scene	other	forget	19	1	75	123	275	127	109.215	19
115.162	2.000	remember	0.393	updating	restudy	2	scene	face	object	target	scene	target	remember	20	1	25	97	249	25	115.147	14
120.612	2.000	forget	0.376	updating	retprac	2	object	scene	face	other	face	competitor	forget	21	1	124	76	176	228	120.596	7
130.978	2.000	remember	0.306	updating	restudy	1	face	object	scene	target	face	target	remember	22	1	51	3	51	103	130.958	24
137.760	2.000	forget	0.363	updating	retprac	1	scene	face	object	other	object	competitor	forget	23	1	28	100	252	28	137.746	2
142.926	2.000	remember	0.365	updating	restudy	2	scene	face	object	target	scene	target	remember	24	1	27	99	251	27	142.914	18
151.159	2.000	remember	0.452	updating	restudy	1	object	face	scene	target	object	competitor	forget	25	1	3	51	151	3	151.136	17
155.859	2.000	forget	0.456	updating	retprac	2	object	face	scene	competitor	face	competitor	forget	26	1	2	50	150	2	155.837	6
160.375	2.000	remember	0.339	updating	restudy	2	face	scene	object	target	face	competitor	forget	27	1	97	25	73	201	160.364	13
165.108	2.000	forget	0.415	updating	retprac	1	scene	face	object	other	object	other	forget	28	1	26	98	250	26	165.101	1
169.657	2.000	remember	0.441	updating	retprac	1	scene	object	face	target	scene	target	remember	29	1	74	122	274	126	169.650	3
177.940	2.000	remember	0.302	updating	restudy	2	object	face	scene	target	object	other	forget	30	1	1	49	149	1	177.923	20
183.457	2.000	remember	0.337	updating	restudy	2	scene	object	face	target	scene	other	forget	31	1	73	121	273	125	183.447	15
188.156	2.000	remember	0.358	updating	retprac	2	object	scene	face	target	object	competitor	forget	32	1	122	74	174	226	188.147	4
194.005	2.000	forget	0.484	updating	retprac	1	face	scene	object	competitor	scene	target	remember	33	1	100	28	76	204	193.987	8
202.121	2.000	remember	0.080	updating	restudy	3	scene	object	face	target	scene	other	forget	34	1	75	123	275	127	202.108	19
207.204	2.000	forget	0.525	updating	retprac	2	scene	face	object	competitor	face	competitor	forget	35	1	28	100	252	28	207.196	2
212.704	2.000	forget	0.370	updating	retprac	2	face	object	scene	competitor	object	other	forget	36	1	52	4	52	104	212.689	5
221.603	2.000	remember	0.278	updating	restudy	1	face	object	scene	target	face	target	remember	37	1	49	1	49	101	221.579	21
229.219	2.000	forget	0.342	updating	retprac	3	object	scene	face	competitor	scene	competitor	forget	38	1	124	76	176	228	229.209	7
234.435	2.000	remember	0.278	updating	retprac	2	scene	object	face	target	scene	competitor	forget	39	1	76	124	276	128	234.428	11
240.401	2.000	remember	0.295	updating	retprac	2	face	object	scene	target	face	target	remember	40	1	50	2	50	102	240.388	10
245.467	2.000	remember	0.349	updating	restudy	2	object	scene	face	target	object	target	remember	41	1	121	73	173	225	245.446	22
250.034	2.000	remember	0.422	updating	restudy	2	face	object	scene	target	face	target	remember	42	1	51	3	51	103	250.026	24
254.883	2.000	remember	0.325	updating	retprac	2	scene	object	face	target	scene	target	remember	43	1	74	122	274	126	254.867	3
259.999	2.000	forget	0.336	updating	retprac	2	face	scene	object	other	object	competitor	forget	44	1	98	26	74	202	259.982	9
265.265	2.000	remember	0.406	updating	restudy	3	scene	object	face	target	scene	other	forget	45	1	73	121	273	125	265.253	15
270.215	2.000	remember	0.376	updating	restudy	2	object	scene	face	target	object	target	remember	46	1	123	75	175	227	270.207	23
274.948	2.000	remember	0.387	updating	restudy	2	face	scene	object	target	face	competitor	forget	47	1	99	27	75	203	274.932	16
279.581	2.000	remember	0.538	updating	retprac	2	scene	face	object	target	scene	other	forget	48	1	26	98	250	26	279.568	1
287.497	2.000	remember	0.342	updating	restudy	3	scene	face	object	target	scene	target	remember	49	1	25	97	249	25	287.487	14
292.230	2.000	forget	0.433	updating	retprac	3	object	scene	face	competitor	scene	competitor	forget	50	1	122	74	174	226	292.208	4
297.279	2.000	remember	0.407	updating	retprac	3	scene	face	object	target	scene	competitor	forget	51	1	28	100	252	28	297.268	2
303.345	2.000	remember	0.309	updating	restudy	2	face	object	scene	target	face	target	remember	52	1	49	1	49	101	303.334	21
308.512	2.000	forget	0.526	updating	retprac	3	object	face	scene	other	scene	target	remember	53	1	4	52	152	4	308.496	12
318.061	2.000	remember	0.313	updating	restudy	2	object	face	scene	target	object	competitor	forget	54	1	3	51	151	3	318.053	17
322.844	2.000	forget	0.666	updating	retprac	3	face	object	scene	competitor	object	other	forget	55	1	52	4	52	104	322.829	5
331.826	2.000	remember	0.291	updating	restudy	3	face	scene	object	target	face	competitor	forget	56	1	97	25	73	201	331.816	13
336.559	2.000	remember	0.582	updating	retprac	2	face	scene	object	target	face	target	remember	57	1	100	28	76	204	336.542	8
341.509	2.000	remember	0.312	updating	restudy	3	object	scene	face	target	object	target	remember	58	1	123	75	175	227	341.493	23
346.858	2.000	remember	0.251	updating	restudy	3	scene	face	object	target	scene	target	remember	59	1	27	99	251	27	346.847	18
355.741	2.000	remember	0.464	updating	retprac	3	scene	face	object	target	scene	other	forget	60	1	26	98	250	26	355.724	1
361.007	2.000	forget	0.454	updating	retprac	3	object	face	scene	other	scene	competitor	forget	61	1	2	50	150	2	360.991	6
365.540	2.000	remember	0.320	updating	restudy	3	face	scene	object	target	face	competitor	forget	62	1	99	27	75	203	365.527	16
370.356	2.000	remember	0.344	updating	retprac	3	scene	object	face	target	scene	target	remember	63	1	74	122	274	126	370.335	3
375.889	2.000	remember	0.235	updating	retprac	3	face	object	scene	target	face	target	remember	64	1	50	2	50	102	375.869	10
381.688	2.000	remember	0.333	updating	restudy	3	object	face	scene	target	object	other	forget	65	1	1	49	149	1	381.672	20
386.538	2.000	remember	0.458	updating	restudy	3	object	scene	face	target	object	target	remember	66	1	121	73	173	225	386.520	22
391.371	2.000	remember	0.265	updating	restudy	3	face	object	scene	target	face	target	remember	67	1	49	1	49	101	391.349	21
399.387	2.000	remember	0.313	updating	restudy	3	face	object	scene	target	face	target	remember	68	1	51	3	51	103	399.376	24
404.470	2.000	remember	0.286	updating	retprac	3	scene	object	face	target	scene	competitor	forget	69	1	76	124	276	128	404.459	11
410.619	2.000	forget	0.288	updating	retprac	3	face	scene	object	other	object	competitor	forget	70	1	98	26	74	202	410.608	9
420.085	2.000	remember	0.318	updating	retprac	3	face	scene	object	target	face	target	remember	71	1	100	28	76	204	420.064	8
425.035	2.000	remember	0.384	updating	restudy	3	object	face	scene	target	object	competitor	forget	72	1	3	51	151	3	425.017	17
