onset	duration	trial_type	response_time	task_type	update_cond	repetition	cate_c	cate_b	cate_o	response_type	response	subs_response	subs_score	trial_id	run_id	word_id	img_id	stim_c	stim_b	design_onset	item_position
1.009	2.000	remember	0.422	updating	retprac	1	face	scene	object	target	face	target	remember	1	5	113	41	89	217	1.000	2
5.658	2.000	forget	0.628	updating	retprac	1	face	scene	object	competitor	scene	target	remember	2	5	115	43	91	219	5.649	5
11.074	2.000	remember	0.452	updating	restudy	1	scene	object	face	target	scene	competitor	forget	3	5	90	138	290	142	11.063	13
15.974	2.000	forget	0.344	updating	retprac	1	scene	object	face	other	face	other	forget	4	5	89	137	289	141	15.948	8
22.623	2.000	remember	0.391	updating	restudy	1	scene	face	object	target	scene	competitor	forget	5	5	42	114	266	42	22.600	24
32.255	2.000	forget	0.390	updating	retprac	1	object	face	scene	competitor	face	target	remember	6	5	17	65	165	17	32.243	9
40.738	2.000	forget	0.435	updating	retprac	1	scene	object	face	competitor	object	target	remember	7	5	91	139	291	143	40.727	1
49.887	2.000	remember	0.845	updating	restudy	1	object	scene	face	target	object	competitor	forget	8	5	140	92	192	244	49.876	23
55.070	2.000	remember	0.271	updating	restudy	1	face	scene	object	target	face	target	remember	9	5	114	42	90	218	55.051	17
60.069	2.000	remember	0.303	updating	retprac	1	object	scene	face	target	object	target	remember	10	5	139	91	191	243	60.057	3
69.768	2.000	remember	0.299	updating	restudy	1	face	object	scene	target	face	target	remember	11	5	66	18	66	118	69.745	19
74.334	2.000	remember	0.453	updating	retprac	1	object	scene	face	target	object	competitor	forget	12	5	137	89	189	241	74.317	10
84.267	2.000	remember	0.336	updating	restudy	1	scene	face	object	target	scene	competitor	forget	13	5	44	116	268	44	84.250	22
88.850	2.000	remember	0.361	updating	restudy	1	face	object	scene	target	face	target	remember	14	5	68	20	68	120	88.837	21
94.216	2.000	remember	0.539	updating	retprac	2	face	scene	object	target	face	target	remember	15	5	115	43	91	219	94.197	5
101.032	2.000	remember	0.370	updating	restudy	1	object	face	scene	target	object	target	remember	16	5	20	68	168	20	101.011	15
107.814	2.000	remember	0.444	updating	retprac	2	scene	object	face	target	scene	other	forget	17	5	89	137	289	141	107.794	8
112.514	2.000	remember	0.408	updating	restudy	2	scene	object	face	target	scene	competitor	forget	18	5	90	138	290	142	112.506	13
117.563	2.000	remember	0.510	updating	retprac	1	scene	face	object	target	scene	target	remember	19	5	41	113	265	41	117.545	7
122.846	2.000	remember	0.395	updating	restudy	1	face	scene	object	target	face	target	remember	20	5	116	44	92	220	122.835	20
127.662	2.000	forget	0.691	updating	retprac	1	object	face	scene	other	scene	competitor	forget	21	5	19	67	167	19	127.641	6
136.828	2.000	remember	0.501	updating	restudy	1	scene	object	face	target	scene	competitor	forget	22	5	92	140	292	144	136.817	18
141.561	2.000	remember	0.392	updating	restudy	1	object	face	scene	target	object	competitor	forget	23	5	18	66	166	18	141.547	16
147.094	2.000	remember	0.427	updating	restudy	2	face	object	scene	target	face	target	remember	24	5	66	18	66	118	147.078	19
152.710	2.000	remember	0.338	updating	restudy	2	face	object	scene	target	face	target	remember	25	5	68	20	68	120	152.702	21
157.243	2.000	remember	0.438	updating	restudy	1	object	scene	face	target	object	competitor	forget	26	5	138	90	190	242	157.220	14
162.226	2.000	remember	0.382	updating	restudy	2	object	scene	face	target	object	competitor	forget	27	5	140	92	192	244	162.211	23
167.208	2.000	remember	0.361	updating	restudy	2	face	scene	object	target	face	target	remember	28	5	114	42	90	218	167.200	17
171.724	2.000	remember	0.795	updating	retprac	2	object	scene	face	target	object	competitor	forget	29	5	137	89	189	241	171.711	10
176.357	2.000	forget	0.506	updating	retprac	1	scene	face	object	competitor	face	competitor	forget	30	5	43	115	267	43	176.337	11
181.540	2.000	remember	0.459	updating	retprac	2	object	face	scene	target	object	target	remember	31	5	17	65	165	17	181.525	9
186.290	2.000	remember	0.613	updating	retprac	1	face	object	scene	target	face	target	remember	32	5	65	17	65	117	186.280	4
192.256	2.000	remember	0.359	updating	retprac	2	object	scene	face	target	object	target	remember	33	5	139	91	191	243	192.239	3
198.122	2.000	remember	0.541	updating	restudy	2	scene	face	object	target	scene	competitor	forget	34	5	44	116	268	44	198.108	22
202.721	2.000	remember	0.357	updating	retprac	2	face	scene	object	target	face	target	remember	35	5	113	41	89	217	202.705	2
207.221	2.000	forget	0.393	updating	retprac	2	scene	object	face	competitor	object	target	remember	36	5	91	139	291	143	207.209	1
215.287	2.000	remember	0.895	updating	restudy	2	scene	face	object	target	scene	competitor	forget	37	5	42	114	266	42	215.277	24
223.519	2.000	forget	0.454	updating	retprac	3	scene	object	face	other	face	other	forget	38	5	89	137	289	141	223.497	8
228.335	2.000	remember	0.470	updating	restudy	3	face	object	scene	target	face	target	remember	39	5	66	18	66	118	228.322	19
232.935	2.000	remember	0.766	updating	retprac	1	face	object	scene	target	face	competitor	forget	40	5	67	19	67	119	232.913	12
238.084	2.000	remember	0.400	updating	restudy	2	object	scene	face	target	object	competitor	forget	41	5	138	90	190	242	238.075	14
245.917	2.000	remember	0.359	updating	restudy	2	object	face	scene	target	object	target	remember	42	5	20	68	168	20	245.904	15
253.283	2.000	remember	0.457	updating	retprac	3	face	scene	object	target	face	target	remember	43	5	115	43	91	219	253.265	5
258.232	2.000	remember	0.643	updating	retprac	2	object	face	scene	target	object	competitor	forget	44	5	19	67	167	19	258.223	6
264.582	2.000	don't know	0.414	updating	retprac	2	scene	face	object	don't know	don't know	target	remember	45	5	41	113	265	41	264.563	7
269.798	2.000	remember	0.446	updating	retprac	3	object	face	scene	target	object	target	remember	46	5	17	65	165	17	269.780	9
274.397	2.000	remember	0.454	updating	restudy	2	face	scene	object	target	face	target	remember	47	5	116	44	92	220	274.376	20
279.197	2.000	remember	0.438	updating	restudy	2	object	face	scene	target	object	competitor	forget	48	5	18	66	166	18	279.186	16
284.180	2.000	remember	0.303	updating	retprac	3	object	scene	face	target	object	competitor	forget	49	5	137	89	189	241	284.162	10
289.029	2.000	remember	0.453	updating	restudy	2	scene	object	face	target	scene	competitor	forget	50	5	92	140	292	144	289.014	18
294.479	2.000	forget	0.524	updating	retprac	2	scene	face	object	other	object	competitor	forget	51	5	43	115	267	43	294.464	11
304.728	2.000	remember	0.346	updating	restudy	3	scene	object	face	target	scene	competitor	forget	52	5	90	138	290	142	304.708	13
309.294	2.000	remember	0.013	updating	restudy	3	object	scene	face	target	object	competitor	forget	53	5	140	92	192	244	309.282	23
314.127	2.000	remember	0.331	updating	restudy	3	face	object	scene	target	face	target	remember	54	5	68	20	68	120	314.110	21
320.693	2.000	remember	0.781	updating	restudy	3	scene	face	object	target	scene	competitor	forget	55	5	42	114	266	42	320.670	24
328.109	2.000	forget	0.428	updating	retprac	2	face	object	scene	competitor	object	competitor	forget	56	5	67	19	67	119	328.094	12
333.841	2.000	remember	0.360	updating	retprac	2	face	object	scene	target	face	target	remember	57	5	65	17	65	117	333.828	4
339.041	2.000	remember	0.472	updating	retprac	3	object	scene	face	target	object	target	remember	58	5	139	91	191	243	339.024	3
346.973	2.000	remember	0.347	updating	retprac	3	object	face	scene	target	object	competitor	forget	59	5	19	67	167	19	346.959	6
354.473	2.000	remember	0.544	updating	restudy	3	face	scene	object	target	face	target	remember	60	5	114	42	90	218	354.450	17
359.322	2.000	remember	0.397	updating	retprac	3	scene	object	face	target	scene	target	remember	61	5	91	139	291	143	359.305	1
364.655	2.000	remember	0.480	updating	restudy	3	object	face	scene	target	object	competitor	forget	62	5	18	66	166	18	364.648	16
369.421	2.000	forget	0.482	updating	retprac	3	scene	face	object	competitor	face	competitor	forget	63	5	43	115	267	43	369.408	11
377.120	2.000	remember	0.871	updating	retprac	3	face	scene	object	target	face	target	remember	64	5	113	41	89	217	377.103	2
383.403	2.000	remember	0.492	updating	restudy	3	object	face	scene	target	object	target	remember	65	5	20	68	168	20	383.395	15
388.386	2.000	remember	0.868	updating	retprac	3	scene	face	object	target	scene	target	remember	66	5	41	113	265	41	388.368	7
393.702	2.000	remember	0.497	updating	restudy	3	scene	face	object	target	scene	competitor	forget	67	5	44	116	268	44	393.689	22
398.851	2.000	remember	0.690	updating	restudy	3	object	scene	face	target	object	competitor	forget	68	5	138	90	190	242	398.842	14
407.017	2.000	remember	0.412	updating	restudy	3	face	scene	object	target	face	target	remember	69	5	116	44	92	220	407.001	20
412.850	2.000	forget	0.491	updating	retprac	3	face	object	scene	competitor	object	competitor	forget	70	5	67	19	67	119	412.838	12
417.400	2.000	remember	0.447	updating	retprac	3	face	object	scene	target	face	target	remember	71	5	65	17	65	117	417.381	4
422.149	2.000	remember	0.536	updating	restudy	3	scene	object	face	target	scene	competitor	forget	72	5	92	140	292	144	422.128	18
