onset	duration	trial_type	response_time	task_type	response_type	update_cond	cate_c	cate_b	cate_o	trial_id	word_id	img_id	stim_c	stim_b	design_onset
2.021	2.000	incorrect	0.615	review a-b	face	test	scene	object	face	1	77	77	277	129	2.000
6.520	2.000	incorrect	0.964	review a-b	scene	test	scene	object	face	2	89	89	289	141	6.500
11.019	2.000	correct	0.568	review a-b	scene	test	object	scene	face	3	125	125	177	229	11.000
15.518	2.000	incorrect	0.648	review a-b	face	restudy	face	object	scene	4	64	64	64	116	15.500
20.017	2.000	incorrect	0.717	review a-b	object	restudy	object	scene	face	5	142	142	194	246	20.000
24.516	2.000	no response	n/a	review a-b	no response	restudy	face	scene	object	6	116	116	92	220	24.500
29.015	2.000	correct	0.880	review a-b	object	restudy	scene	object	face	7	76	76	276	128	29.000
33.514	2.000	correct	0.535	review a-b	object	test	scene	object	face	8	85	85	285	137	33.500
38.012	2.000	correct	0.402	review a-b	face	restudy	scene	face	object	9	44	44	268	44	38.000
42.511	2.000	correct	0.482	review a-b	scene	restudy	object	scene	face	10	126	126	178	230	42.500
47.010	2.000	correct	0.810	review a-b	object	restudy	scene	object	face	11	96	96	296	148	47.000
51.509	2.000	incorrect	0.418	review a-b	object	test	face	scene	object	12	107	107	83	211	51.500
56.008	2.000	correct	0.726	review a-b	object	test	scene	object	face	13	93	93	293	145	56.000
60.524	2.000	incorrect	0.764	review a-b	scene	restudy	scene	object	face	14	92	92	292	144	60.500
65.022	2.000	incorrect	0.517	review a-b	object	restudy	object	face	scene	15	2	2	150	2	65.000
69.521	2.000	incorrect	0.400	review a-b	face	test	face	object	scene	16	71	71	71	123	69.500
74.020	2.000	incorrect	0.806	review a-b	scene	restudy	scene	object	face	17	94	94	294	146	74.000
78.519	2.000	incorrect	0.476	review a-b	face	restudy	face	object	scene	18	62	62	62	114	78.500
83.018	2.000	correct	0.612	review a-b	object	test	face	object	scene	19	59	59	59	111	83.000
87.517	2.000	correct	0.571	review a-b	object	restudy	face	object	scene	20	50	50	50	102	87.500
92.016	2.000	correct	0.491	review a-b	scene	test	face	scene	object	21	103	103	79	207	92.000
96.515	2.000	correct	0.635	review a-b	object	test	face	object	scene	22	53	53	53	105	96.500
101.014	2.000	no response	n/a	review a-b	no response	test	scene	object	face	23	83	83	283	135	101.000
105.512	2.000	incorrect	0.628	review a-b	object	test	face	scene	object	24	111	111	87	215	105.500
110.011	2.000	correct	0.639	review a-b	scene	restudy	face	scene	object	25	120	120	96	224	110.000
114.510	2.000	correct	0.598	review a-b	face	restudy	object	face	scene	26	24	24	172	24	114.500
119.009	2.000	incorrect	0.614	review a-b	object	test	scene	face	object	27	25	25	249	25	119.000
123.508	2.000	incorrect	0.769	review a-b	scene	restudy	scene	object	face	28	82	82	282	134	123.500
128.007	2.000	correct	0.733	review a-b	face	test	scene	face	object	29	47	47	271	47	128.000
132.522	2.000	correct	0.383	review a-b	face	restudy	object	face	scene	30	14	14	162	14	132.500
137.021	2.000	correct	0.451	review a-b	object	test	scene	object	face	31	91	91	291	143	137.000
141.520	2.000	correct	0.530	review a-b	face	test	object	face	scene	32	19	19	167	19	141.500
146.019	2.000	correct	0.494	review a-b	scene	test	face	scene	object	33	119	119	95	223	146.000
150.518	2.000	correct	0.659	review a-b	object	test	scene	object	face	34	73	73	273	125	150.500
155.017	2.000	correct	0.494	review a-b	face	restudy	scene	face	object	35	48	48	272	48	155.000
159.516	2.000	correct	0.947	review a-b	object	test	face	object	scene	36	63	63	63	115	159.500
164.015	2.000	incorrect	0.646	review a-b	face	test	scene	object	face	37	87	87	287	139	164.000
168.513	2.000	incorrect	0.712	review a-b	object	restudy	object	face	scene	38	6	6	154	6	168.500
173.012	2.000	incorrect	0.474	review a-b	face	restudy	object	scene	face	39	134	134	186	238	173.000
177.511	2.000	correct	0.459	review a-b	face	test	scene	face	object	40	37	37	261	37	177.500
182.010	2.000	correct	0.597	review a-b	face	restudy	object	face	scene	41	22	22	170	22	182.000
186.509	2.000	incorrect	0.693	review a-b	scene	test	object	face	scene	42	13	13	161	13	186.500
191.008	2.000	incorrect	0.584	review a-b	object	restudy	object	face	scene	43	10	10	158	10	191.000
195.523	2.000	correct	0.719	review a-b	scene	test	face	scene	object	44	99	99	75	203	195.500
200.022	2.000	correct	0.652	review a-b	object	test	face	object	scene	45	65	65	65	117	200.000
204.521	2.000	incorrect	0.997	review a-b	face	restudy	face	scene	object	46	112	112	88	216	204.500
209.020	2.000	incorrect	0.355	review a-b	object	restudy	object	scene	face	47	138	138	190	242	209.000
213.519	2.000	incorrect	0.538	review a-b	scene	restudy	scene	face	object	48	34	34	258	34	213.500
218.018	2.000	correct	0.509	review a-b	object	restudy	scene	object	face	49	90	90	290	142	218.000
222.517	2.000	correct	0.637	review a-b	face	test	object	face	scene	50	7	7	155	7	222.500
227.015	2.000	no response	n/a	review a-b	no response	restudy	scene	face	object	51	32	32	256	32	227.000
231.514	2.000	incorrect	0.875	review a-b	object	restudy	object	scene	face	52	132	132	184	236	231.500
236.013	2.000	incorrect	0.585	review a-b	face	restudy	face	scene	object	53	110	110	86	214	236.000
240.512	2.000	no response	n/a	review a-b	no response	test	face	scene	object	54	117	117	93	221	240.500
245.011	2.000	incorrect	0.956	review a-b	scene	test	scene	object	face	55	81	81	281	133	245.000
249.510	2.000	incorrect	0.578	review a-b	object	restudy	object	face	scene	56	18	18	166	18	249.500
254.009	2.000	correct	0.361	review a-b	face	test	object	face	scene	57	11	11	159	11	254.000
258.508	2.000	correct	0.553	review a-b	face	restudy	object	face	scene	58	4	4	152	4	258.500
263.006	2.000	incorrect	0.444	review a-b	face	restudy	object	scene	face	59	140	140	192	244	263.000
267.522	2.000	incorrect	0.405	review a-b	face	restudy	face	object	scene	60	54	54	54	106	267.500
272.021	2.000	incorrect	0.761	review a-b	scene	test	face	object	scene	61	49	49	49	101	272.000
276.520	2.000	correct	0.832	review a-b	face	restudy	scene	face	object	62	38	38	262	38	276.500
281.019	2.000	correct	0.648	review a-b	scene	test	face	scene	object	63	105	105	81	209	281.000
285.518	2.000	correct	0.616	review a-b	scene	restudy	object	scene	face	64	144	144	196	248	285.500
290.017	2.000	correct	0.649	review a-b	scene	test	object	scene	face	65	121	121	173	225	290.000
294.515	2.000	incorrect	0.657	review a-b	object	test	object	face	scene	66	3	3	151	3	294.500
299.014	2.000	incorrect	0.441	review a-b	object	test	object	scene	face	67	139	139	191	243	299.000
303.513	2.000	correct	0.791	review a-b	scene	test	face	scene	object	68	113	113	89	217	303.500
308.012	2.000	correct	0.761	review a-b	scene	test	face	scene	object	69	101	101	77	205	308.000
312.511	2.000	no response	n/a	review a-b	no response	restudy	scene	face	object	70	40	40	264	40	312.500
317.010	2.000	correct	0.525	review a-b	scene	restudy	object	scene	face	71	136	136	188	240	317.000
321.509	2.000	correct	0.754	review a-b	object	test	scene	object	face	72	95	95	295	147	321.500
326.007	2.000	correct	0.711	review a-b	face	restudy	object	face	scene	73	20	20	168	20	326.000
330.506	2.000	correct	0.441	review a-b	object	restudy	scene	object	face	74	88	88	288	140	330.500
335.022	2.000	correct	0.700	review a-b	scene	test	face	scene	object	75	97	97	73	201	335.000
339.521	2.000	correct	0.549	review a-b	object	test	scene	object	face	76	79	79	279	131	339.500
344.020	2.000	correct	0.090	review a-b	face	test	scene	face	object	77	27	27	251	27	344.000
348.519	2.000	incorrect	0.662	review a-b	face	test	face	object	scene	78	61	61	61	113	348.500
353.017	2.000	correct	0.954	review a-b	scene	test	object	scene	face	79	123	123	175	227	353.000
357.516	2.000	correct	0.543	review a-b	face	test	scene	face	object	80	39	39	263	39	357.500
362.015	2.000	incorrect	0.665	review a-b	face	restudy	scene	object	face	81	78	78	278	130	362.000
366.514	2.000	correct	0.768	review a-b	face	test	scene	face	object	82	31	31	255	31	366.500
371.013	2.000	incorrect	0.492	review a-b	object	restudy	object	face	scene	83	8	8	156	8	371.000
375.512	2.000	correct	0.385	review a-b	object	restudy	face	object	scene	84	72	72	72	124	375.500
380.011	2.000	correct	0.430	review a-b	face	test	scene	face	object	85	29	29	253	29	380.000
384.510	2.000	correct	0.386	review a-b	face	test	scene	face	object	86	45	45	269	45	384.500
389.008	2.000	incorrect	0.603	review a-b	object	restudy	face	scene	object	87	102	102	78	206	389.000
393.507	2.000	no response	n/a	review a-b	no response	restudy	face	object	scene	88	70	70	70	122	393.500
398.006	2.000	incorrect	0.528	review a-b	object	restudy	scene	face	object	89	36	36	260	36	398.000
402.522	2.000	correct	0.845	review a-b	face	test	object	face	scene	90	9	9	157	9	402.500
407.021	2.000	incorrect	0.581	review a-b	scene	test	face	object	scene	91	69	69	69	121	407.000
411.519	2.000	incorrect	0.718	review a-b	scene	restudy	scene	face	object	92	30	30	254	30	411.500
416.018	2.000	incorrect	0.460	review a-b	face	test	object	scene	face	93	131	131	183	235	416.000
420.517	2.000	incorrect	0.565	review a-b	face	test	face	object	scene	94	67	67	67	119	420.500
425.016	2.000	correct	0.621	review a-b	scene	restudy	face	scene	object	95	100	100	76	204	425.000
429.515	2.000	correct	0.707	review a-b	scene	restudy	face	scene	object	96	118	118	94	222	429.500
434.014	2.000	correct	0.503	review a-b	face	restudy	scene	face	object	97	26	26	250	26	434.000
438.513	2.000	incorrect	0.396	review a-b	object	restudy	object	scene	face	98	130	130	182	234	438.500
443.012	2.000	incorrect	0.652	review a-b	scene	test	scene	face	object	99	33	33	257	33	443.000
447.511	2.000	incorrect	0.536	review a-b	object	test	face	scene	object	100	109	109	85	213	447.500
452.009	2.000	correct	0.634	review a-b	scene	test	face	scene	object	101	115	115	91	219	452.000
456.508	2.000	correct	0.711	review a-b	object	restudy	face	object	scene	102	52	52	52	104	456.500
461.007	2.000	incorrect	0.498	review a-b	face	restudy	scene	object	face	103	80	80	280	132	461.000
465.506	2.000	correct	0.413	review a-b	face	test	scene	face	object	104	35	35	259	35	465.500
470.022	2.000	incorrect	0.393	review a-b	object	test	object	scene	face	105	135	135	187	239	470.000
474.521	2.000	incorrect	0.492	review a-b	face	restudy	object	scene	face	106	124	124	176	228	474.500
479.019	2.000	incorrect	0.621	review a-b	object	restudy	face	scene	object	107	114	114	90	218	479.000
483.518	2.000	correct	0.414	review a-b	scene	test	object	scene	face	108	129	129	181	233	483.500
488.017	2.000	correct	0.690	review a-b	object	test	face	object	scene	109	51	51	51	103	488.000
492.516	2.000	correct	0.533	review a-b	face	test	object	face	scene	110	17	17	165	17	492.500
497.015	2.000	correct	0.483	review a-b	object	restudy	face	object	scene	111	58	58	58	110	497.000
501.514	2.000	correct	0.665	review a-b	face	test	object	face	scene	112	15	15	163	15	501.500
506.013	2.000	incorrect	0.909	review a-b	face	test	object	scene	face	113	127	127	179	231	506.000
510.512	2.000	correct	0.502	review a-b	face	restudy	object	face	scene	114	16	16	164	16	510.500
515.010	2.000	incorrect	0.685	review a-b	face	restudy	face	object	scene	115	60	60	60	112	515.000
519.509	2.000	incorrect	0.826	review a-b	face	test	face	object	scene	116	57	57	57	109	519.500
524.008	2.000	incorrect	0.416	review a-b	scene	restudy	scene	object	face	117	74	74	274	126	524.000
528.507	2.000	correct	0.879	review a-b	scene	test	object	scene	face	118	141	141	193	245	528.500
533.023	2.000	incorrect	0.537	review a-b	object	restudy	scene	face	object	119	46	46	270	46	533.000
537.521	2.000	correct	0.515	review a-b	face	test	object	face	scene	120	21	21	169	21	537.500
542.020	2.000	correct	0.617	review a-b	scene	test	object	scene	face	121	143	143	195	247	542.000
546.519	2.000	correct	0.431	review a-b	object	restudy	scene	object	face	122	84	84	284	136	546.500
551.018	2.000	no response	n/a	review a-b	no response	test	scene	object	face	123	75	75	275	127	551.000
555.517	2.000	incorrect	0.863	review a-b	object	test	object	face	scene	124	23	23	171	23	555.500
560.016	2.000	incorrect	0.797	review a-b	object	restudy	scene	face	object	125	28	28	252	28	560.000
564.515	2.000	correct	0.551	review a-b	scene	restudy	face	scene	object	126	104	104	80	208	564.500
569.014	2.000	correct	0.602	review a-b	face	restudy	scene	face	object	127	42	42	266	42	569.000
573.513	2.000	incorrect	0.990	review a-b	face	restudy	face	scene	object	128	98	98	74	202	573.500
578.011	2.000	no response	n/a	review a-b	no response	restudy	scene	object	face	129	86	86	286	138	578.000
582.510	2.000	incorrect	0.868	review a-b	scene	restudy	object	face	scene	130	12	12	160	12	582.500
587.009	2.000	incorrect	0.614	review a-b	object	test	object	face	scene	131	1	1	149	1	587.000
591.508	2.000	no response	n/a	review a-b	no response	restudy	face	object	scene	132	68	68	68	120	591.500
596.007	2.000	correct	0.545	review a-b	scene	restudy	face	scene	object	133	108	108	84	212	596.000
600.523	2.000	incorrect	0.573	review a-b	face	restudy	object	scene	face	134	128	128	180	232	600.500
605.021	2.000	correct	0.480	review a-b	face	test	object	face	scene	135	5	5	153	5	605.000
609.520	2.000	correct	0.511	review a-b	object	restudy	face	object	scene	136	66	66	66	118	609.500
614.019	2.000	correct	0.680	review a-b	scene	restudy	object	scene	face	137	122	122	174	226	614.000
618.518	2.000	correct	0.928	review a-b	object	test	face	object	scene	138	55	55	55	107	618.500
623.017	2.000	correct	0.717	review a-b	object	restudy	face	object	scene	139	56	56	56	108	623.000
627.516	2.000	correct	0.507	review a-b	scene	restudy	face	scene	object	140	106	106	82	210	627.500
632.015	2.000	correct	0.659	review a-b	face	test	scene	face	object	141	41	41	265	41	632.000
636.514	2.000	correct	0.686	review a-b	scene	test	object	scene	face	142	133	133	185	237	636.500
641.012	2.000	incorrect	0.870	review a-b	object	test	scene	face	object	143	43	43	267	43	641.000
645.511	2.000	correct	0.668	review a-b	scene	test	object	scene	face	144	137	137	189	241	645.500
2.011	2.000	incorrect	0.482	review a-b	face	restudy	scene	object	face	145	82	82	282	134	2.000
6.510	2.000	correct	0.494	review a-b	face	restudy	scene	face	object	146	30	30	254	30	6.500
11.009	2.000	incorrect	0.550	review a-b	face	restudy	face	object	scene	147	60	60	60	112	11.000
15.508	2.000	correct	0.459	review a-b	face	restudy	object	face	scene	148	10	10	158	10	15.500
20.007	2.000	incorrect	0.575	review a-b	scene	restudy	scene	face	object	149	32	32	256	32	20.000
24.522	2.000	incorrect	0.520	review a-b	object	test	object	scene	face	150	139	139	191	243	24.500
29.021	2.000	correct	0.664	review a-b	face	test	scene	face	object	151	43	43	267	43	29.000
33.520	2.000	correct	0.734	review a-b	scene	restudy	object	scene	face	152	130	130	182	234	33.500
38.019	2.000	incorrect	0.562	review a-b	object	restudy	scene	face	object	153	28	28	252	28	38.000
42.518	2.000	correct	0.724	review a-b	scene	restudy	face	scene	object	154	116	116	92	220	42.500
47.016	2.000	correct	0.377	review a-b	face	restudy	object	face	scene	155	12	12	160	12	47.000
51.515	2.000	incorrect	0.505	review a-b	face	test	face	object	scene	156	49	49	49	101	51.500
56.014	2.000	incorrect	0.621	review a-b	object	test	object	scene	face	157	131	131	183	235	56.000
60.513	2.000	correct	0.409	review a-b	object	restudy	scene	object	face	158	80	80	280	132	60.500
65.012	2.000	correct	0.433	review a-b	object	restudy	face	object	scene	159	68	68	68	120	65.000
69.511	2.000	correct	0.795	review a-b	scene	restudy	object	scene	face	160	140	140	192	244	69.500
74.010	2.000	correct	0.730	review a-b	object	test	scene	object	face	161	75	75	275	127	74.000
78.509	2.000	correct	0.604	review a-b	face	test	object	face	scene	162	23	23	171	23	78.500
83.007	2.000	correct	0.772	review a-b	face	test	scene	face	object	163	25	25	249	25	83.000
87.507	2.000	incorrect	0.800	review a-b	face	restudy	object	scene	face	164	142	142	194	246	87.500
92.022	2.000	correct	0.537	review a-b	object	restudy	scene	object	face	165	86	86	286	138	92.000
96.521	2.000	correct	0.870	review a-b	scene	test	face	scene	object	166	111	111	87	215	96.500
101.020	2.000	correct	0.711	review a-b	object	test	scene	object	face	167	77	77	277	129	101.000
105.519	2.000	correct	0.672	review a-b	face	restudy	object	face	scene	168	6	6	154	6	105.500
110.018	2.000	correct	0.666	review a-b	face	test	object	face	scene	169	13	13	161	13	110.000
114.516	2.000	incorrect	0.995	review a-b	face	restudy	scene	object	face	170	94	94	294	146	114.500
119.015	2.000	correct	0.667	review a-b	face	restudy	object	face	scene	171	2	2	150	2	119.000
123.514	2.000	correct	0.888	review a-b	object	restudy	face	object	scene	172	70	70	70	122	123.500
128.013	2.000	correct	0.804	review a-b	object	test	scene	object	face	173	87	87	287	139	128.000
132.512	2.000	incorrect	0.763	review a-b	scene	restudy	scene	object	face	174	92	92	292	144	132.500
137.011	2.000	correct	0.621	review a-b	face	restudy	scene	face	object	175	34	34	258	34	137.000
141.510	2.000	incorrect	0.794	review a-b	scene	test	face	object	scene	176	71	71	71	123	141.500
146.009	2.000	correct	0.588	review a-b	face	test	object	face	scene	177	1	1	149	1	146.000
150.507	2.000	correct	0.520	review a-b	face	restudy	object	face	scene	178	18	18	166	18	150.500
155.023	2.000	incorrect	0.389	review a-b	scene	test	scene	object	face	179	81	81	281	133	155.000
159.522	2.000	correct	0.582	review a-b	object	test	face	object	scene	180	69	69	69	121	159.500
164.021	2.000	correct	0.690	review a-b	scene	test	face	scene	object	181	117	117	93	221	164.000
168.520	2.000	correct	0.525	review a-b	object	test	scene	object	face	182	83	83	283	135	168.500
173.018	2.000	correct	0.512	review a-b	object	restudy	face	object	scene	183	54	54	54	106	173.000
177.517	2.000	incorrect	0.573	review a-b	face	restudy	face	scene	object	184	110	110	86	214	177.500
182.016	2.000	correct	0.577	review a-b	scene	restudy	object	scene	face	185	132	132	184	236	182.000
186.515	2.000	incorrect	0.812	review a-b	object	test	face	scene	object	186	107	107	83	211	186.500
191.014	2.000	correct	0.572	review a-b	scene	restudy	face	scene	object	187	112	112	88	216	191.000
195.513	2.000	incorrect	0.546	review a-b	scene	restudy	scene	face	object	188	40	40	264	40	195.500
200.012	2.000	correct	0.544	review a-b	object	test	face	object	scene	189	57	57	57	109	200.000
204.511	2.000	incorrect	0.654	review a-b	face	restudy	object	scene	face	190	124	124	176	228	204.500
209.009	2.000	incorrect	0.694	review a-b	scene	test	face	object	scene	191	67	67	67	119	209.000
213.508	2.000	correct	0.726	review a-b	scene	test	face	scene	object	192	109	109	85	213	213.500
218.007	2.000	correct	0.407	review a-b	face	test	object	face	scene	193	3	3	151	3	218.000
222.506	2.000	correct	0.416	review a-b	scene	restudy	face	scene	object	194	114	114	90	218	222.500
227.022	2.000	correct	0.600	review a-b	scene	test	object	scene	face	195	127	127	179	231	227.000
231.521	2.000	correct	0.529	review a-b	face	restudy	scene	face	object	196	46	46	270	46	231.500
236.019	2.000	correct	0.638	review a-b	face	test	scene	face	object	197	33	33	257	33	236.000
240.518	2.000	incorrect	0.516	review a-b	face	restudy	face	object	scene	198	62	62	62	114	240.500
245.017	2.000	correct	0.668	review a-b	face	restudy	object	face	scene	199	8	8	156	8	245.000
249.516	2.000	correct	0.472	review a-b	scene	restudy	object	scene	face	200	128	128	180	232	249.500
254.015	2.000	correct	0.136	review a-b	object	restudy	scene	object	face	201	74	74	274	126	254.000
258.514	2.000	incorrect	0.729	review a-b	object	test	object	scene	face	202	135	135	187	239	258.500
263.013	2.000	incorrect	0.741	review a-b	face	restudy	object	scene	face	203	134	134	186	238	263.000
267.512	2.000	incorrect	0.755	review a-b	object	restudy	face	scene	object	204	98	98	74	202	267.500
272.011	2.000	incorrect	0.835	review a-b	object	restudy	object	scene	face	205	138	138	190	242	272.000
276.509	2.000	incorrect	0.681	review a-b	face	restudy	scene	object	face	206	78	78	278	130	276.500
281.008	2.000	incorrect	0.571	review a-b	scene	restudy	face	object	scene	207	64	64	64	116	281.000
285.507	2.000	correct	0.322	review a-b	object	test	face	object	scene	208	61	61	61	113	285.500
290.006	2.000	correct	0.737	review a-b	scene	restudy	face	scene	object	209	102	102	78	206	290.000
294.521	2.000	correct	0.700	review a-b	object	test	scene	object	face	210	89	89	289	141	294.500
299.020	2.000	correct	0.457	review a-b	face	restudy	scene	face	object	211	36	36	260	36	299.000
2.014	2.000	correct	0.541	review a-b	scene	test	object	scene	face	212	131	131	183	235	2.000
6.513	2.000	correct	0.596	review a-b	scene	restudy	object	scene	face	213	142	142	194	246	6.500
11.011	2.000	correct	0.495	review a-b	object	restudy	face	object	scene	214	62	62	62	114	11.000
15.510	2.000	incorrect	0.624	review a-b	object	restudy	face	scene	object	215	98	98	74	202	15.500
20.009	2.000	incorrect	0.367	review a-b	face	restudy	object	scene	face	216	134	134	186	238	20.000
24.508	2.000	correct	0.473	review a-b	object	test	face	object	scene	217	71	71	71	123	24.500
29.007	2.000	incorrect	0.628	review a-b	object	test	object	scene	face	218	135	135	187	239	29.000
33.523	2.000	correct	0.391	review a-b	face	restudy	scene	face	object	219	40	40	264	40	33.500
38.022	2.000	correct	0.753	review a-b	object	test	face	object	scene	220	49	49	49	101	38.000
42.520	2.000	incorrect	0.919	review a-b	scene	restudy	scene	object	face	221	92	92	292	144	42.500
47.019	2.000	incorrect	0.526	review a-b	scene	restudy	scene	object	face	222	94	94	294	146	47.000
51.518	2.000	correct	0.469	review a-b	scene	restudy	face	scene	object	223	110	110	86	214	51.500
56.017	2.000	incorrect	0.765	review a-b	object	restudy	object	scene	face	224	124	124	176	228	56.000
60.516	2.000	correct	0.503	review a-b	object	test	face	object	scene	225	67	67	67	119	60.500
65.015	2.000	correct	0.507	review a-b	scene	test	object	scene	face	226	139	139	191	243	65.000
69.514	2.000	correct	0.461	review a-b	scene	test	face	scene	object	227	107	107	83	211	69.500
74.012	2.000	incorrect	0.551	review a-b	face	restudy	face	object	scene	228	64	64	64	116	74.000
78.511	2.000	correct	0.419	review a-b	object	restudy	scene	object	face	229	78	78	278	130	78.500
83.010	2.000	incorrect	0.722	review a-b	face	restudy	face	object	scene	230	60	60	60	112	83.000
87.509	2.000	incorrect	0.645	review a-b	scene	restudy	scene	face	object	231	32	32	256	32	87.500
92.008	2.000	correct	0.656	review a-b	scene	restudy	object	scene	face	232	138	138	190	242	92.000
96.507	2.000	correct	0.711	review a-b	object	test	scene	object	face	233	81	81	281	133	96.500
101.022	2.000	correct	0.540	review a-b	face	restudy	scene	face	object	234	28	28	252	28	101.000
105.521	2.000	correct	0.610	review a-b	object	restudy	scene	object	face	235	82	82	282	134	105.500
2.016	2.000	incorrect	0.954	review a-b	scene	restudy	scene	object	face	236	92	92	292	144	2.000
6.515	2.000	no response	n/a	review a-b	no response	restudy	object	scene	face	237	134	134	186	238	6.500
11.014	2.000	correct	0.458	review a-b	face	restudy	scene	face	object	238	32	32	256	32	11.000
15.513	2.000	incorrect	0.611	review a-b	object	restudy	face	scene	object	239	98	98	74	202	15.500
20.012	2.000	incorrect	0.718	review a-b	face	restudy	object	scene	face	240	124	124	176	228	20.000
24.510	2.000	correct	0.753	review a-b	object	restudy	face	object	scene	241	60	60	60	112	24.500
29.009	2.000	correct	0.892	review a-b	object	restudy	face	object	scene	242	64	64	64	116	29.000
33.525	2.000	incorrect	0.678	review a-b	object	test	object	scene	face	243	135	135	187	239	33.500
38.007	2.000	incorrect	0.959	review a-b	scene	restudy	scene	object	face	244	94	94	294	146	38.000
2.016	2.000	no response	n/a	review a-b	no response	restudy	object	scene	face	245	134	134	186	238	2.000
6.515	2.000	correct	0.672	review a-b	object	restudy	scene	object	face	246	94	94	294	146	6.500
11.014	2.000	incorrect	0.658	review a-b	object	test	object	scene	face	247	135	135	187	239	11.000
15.513	2.000	correct	0.563	review a-b	object	restudy	scene	object	face	248	92	92	292	144	15.500
20.012	2.000	correct	0.590	review a-b	scene	restudy	object	scene	face	249	124	124	176	228	20.000
24.510	2.000	incorrect	0.520	review a-b	object	restudy	face	scene	object	250	98	98	74	202	24.500
2.016	2.000	correct	0.689	review a-b	scene	test	object	scene	face	251	135	135	187	239	2.000
6.515	2.000	correct	0.867	review a-b	scene	restudy	object	scene	face	252	134	134	186	238	6.500
11.014	2.000	correct	0.695	review a-b	scene	restudy	face	scene	object	253	98	98	74	202	11.000
