onset	duration	trial_type	response_time	task_type	response_type	trial_id	run_id	block_id	word_id	img_id	design_onset	grate_orientation
2.008	2.000	face	1.984	localizer	weak unrelated	1	1	1	1	1	2.0	n/a
6.008	2.000	face	2.352	localizer	weak unrelated	2	1	1	2	2	6.0	n/a
10.007	2.000	face	2.113	localizer	weak related	3	1	1	3	3	10.0	n/a
14.007	2.000	face	2.281	localizer	weak related	4	1	1	4	4	14.0	n/a
18.007	2.000	face	2.672	localizer	weak unrelated	5	1	1	5	5	18.0	n/a
22.006	2.000	face	1.338	localizer	weak related	6	1	1	6	6	22.0	n/a
26.046	1.262	correct	1.262	grate	n/a	6	1	n/a	n/a	n/a	n/a	right
27.824	0.451	correct	0.451	grate	n/a	6	1	n/a	n/a	n/a	n/a	left
28.790	0.397	correct	0.397	grate	n/a	6	1	n/a	n/a	n/a	n/a	left
29.707	0.448	correct	0.448	grate	n/a	6	1	n/a	n/a	n/a	n/a	right
30.674	0.450	correct	0.450	grate	n/a	6	1	n/a	n/a	n/a	n/a	left
31.640	0.475	correct	0.475	grate	n/a	6	1	n/a	n/a	n/a	n/a	right
32.624	0.444	correct	0.444	grate	n/a	6	1	n/a	n/a	n/a	n/a	right
33.590	0.413	correct	0.413	grate	n/a	6	1	n/a	n/a	n/a	n/a	right
34.523	0.560	correct	0.560	grate	n/a	6	1	n/a	n/a	n/a	n/a	left
35.607	0.437	correct	0.437	grate	n/a	6	1	n/a	n/a	n/a	n/a	right
36.557	0.100	incorrect	0.100	grate	n/a	6	1	n/a	n/a	n/a	n/a	left
38.022	2.000	scene	2.049	localizer	strong unrelated	7	1	2	145	201	38.0	n/a
42.022	2.000	scene	2.201	localizer	weak unrelated	8	1	2	146	202	42.0	n/a
46.021	2.000	scene	1.898	localizer	weak unrelated	9	1	2	147	203	46.0	n/a
50.021	2.000	scene	1.890	localizer	weak unrelated	10	1	2	148	204	50.0	n/a
54.021	2.000	scene	1.330	localizer	weak unrelated	11	1	2	149	205	54.0	n/a
58.021	2.000	scene	1.794	localizer	strong unrelated	12	1	2	150	206	58.0	n/a
62.060	0.895	correct	0.895	grate	n/a	12	1	n/a	n/a	n/a	n/a	right
63.472	0.451	correct	0.451	grate	n/a	12	1	n/a	n/a	n/a	n/a	left
64.438	0.373	correct	0.373	grate	n/a	12	1	n/a	n/a	n/a	n/a	right
65.321	0.442	correct	0.442	grate	n/a	12	1	n/a	n/a	n/a	n/a	right
66.271	0.452	correct	0.452	grate	n/a	12	1	n/a	n/a	n/a	n/a	left
67.238	0.397	correct	0.397	grate	n/a	12	1	n/a	n/a	n/a	n/a	right
68.154	0.426	correct	0.426	grate	n/a	12	1	n/a	n/a	n/a	n/a	right
69.088	0.428	correct	0.428	grate	n/a	12	1	n/a	n/a	n/a	n/a	right
70.037	0.478	correct	0.478	grate	n/a	12	1	n/a	n/a	n/a	n/a	left
71.037	0.461	correct	0.461	grate	n/a	12	1	n/a	n/a	n/a	n/a	left
72.021	0.406	correct	0.406	grate	n/a	12	1	n/a	n/a	n/a	n/a	right
72.937	0.100	incorrect	0.100	grate	n/a	12	1	n/a	n/a	n/a	n/a	left
74.020	2.000	object	1.875	localizer	weak unrelated	13	1	3	73	101	74.0	n/a
78.019	2.000	object	1.659	localizer	weak related	14	1	3	74	102	78.0	n/a
82.019	2.000	object	2.012	localizer	weak unrelated	15	1	3	75	103	82.0	n/a
86.019	2.000	object	1.636	localizer	weak unrelated	16	1	3	76	104	86.0	n/a
90.019	2.000	object	2.276	localizer	weak related	17	1	3	77	105	90.0	n/a
94.018	2.000	object	2.236	localizer	weak related	18	1	3	78	106	94.0	n/a
98.057	1.169	correct	1.169	grate	n/a	18	1	n/a	n/a	n/a	n/a	left
99.736	0.410	correct	0.410	grate	n/a	18	1	n/a	n/a	n/a	n/a	right
100.669	0.494	correct	0.494	grate	n/a	18	1	n/a	n/a	n/a	n/a	right
101.685	0.462	correct	0.462	grate	n/a	18	1	n/a	n/a	n/a	n/a	right
102.669	0.479	correct	0.479	grate	n/a	18	1	n/a	n/a	n/a	n/a	left
103.669	0.446	correct	0.446	grate	n/a	18	1	n/a	n/a	n/a	n/a	right
104.635	0.400	correct	0.400	grate	n/a	18	1	n/a	n/a	n/a	n/a	left
105.552	0.451	correct	0.451	grate	n/a	18	1	n/a	n/a	n/a	n/a	left
106.518	0.524	correct	0.524	grate	n/a	18	1	n/a	n/a	n/a	n/a	right
107.552	0.435	correct	0.435	grate	n/a	18	1	n/a	n/a	n/a	n/a	right
108.502	0.050	incorrect	0.050	grate	n/a	18	1	n/a	n/a	n/a	n/a	right
110.017	2.000	scene	1.501	localizer	weak related	19	1	4	151	207	110.0	n/a
114.017	2.000	scene	2.598	localizer	strong related	20	1	4	152	208	114.0	n/a
118.017	2.000	scene	1.463	localizer	weak unrelated	21	1	4	153	209	118.0	n/a
122.016	2.000	scene	2.062	localizer	strong unrelated	22	1	4	154	210	122.0	n/a
126.016	2.000	scene	1.958	localizer	weak related	23	1	4	155	211	126.0	n/a
130.016	2.000	scene	1.775	localizer	weak unrelated	24	1	4	156	212	130.0	n/a
134.056	1.051	correct	1.051	grate	n/a	24	1	n/a	n/a	n/a	n/a	left
135.617	0.425	correct	0.425	grate	n/a	24	1	n/a	n/a	n/a	n/a	left
136.550	0.365	correct	0.365	grate	n/a	24	1	n/a	n/a	n/a	n/a	left
137.433	0.410	correct	0.410	grate	n/a	24	1	n/a	n/a	n/a	n/a	left
138.366	0.412	correct	0.412	grate	n/a	24	1	n/a	n/a	n/a	n/a	left
139.299	0.367	incorrect	0.367	grate	n/a	24	1	n/a	n/a	n/a	n/a	right
140.183	0.524	correct	0.524	grate	n/a	24	1	n/a	n/a	n/a	n/a	right
141.216	0.506	correct	0.506	grate	n/a	24	1	n/a	n/a	n/a	n/a	right
142.232	0.426	correct	0.426	grate	n/a	24	1	n/a	n/a	n/a	n/a	right
143.166	0.453	correct	0.453	grate	n/a	24	1	n/a	n/a	n/a	n/a	right
144.132	0.417	incorrect	0.417	grate	n/a	24	1	n/a	n/a	n/a	n/a	left
146.015	2.000	object	1.488	localizer	weak related	25	1	5	79	107	146.0	n/a
150.014	2.000	object	1.945	localizer	weak unrelated	26	1	5	80	108	150.0	n/a
154.015	2.000	object	1.680	localizer	weak unrelated	27	1	5	81	109	154.0	n/a
158.014	2.000	object	1.632	localizer	weak unrelated	28	1	5	82	110	158.0	n/a
162.013	2.000	object	2.562	localizer	strong unrelated	29	1	5	83	111	162.0	n/a
166.013	2.000	object	1.689	localizer	weak unrelated	30	1	5	84	112	166.0	n/a
170.052	1.278	correct	1.278	grate	n/a	30	1	n/a	n/a	n/a	n/a	left
171.847	0.507	correct	0.507	grate	n/a	30	1	n/a	n/a	n/a	n/a	right
172.864	0.402	correct	0.402	grate	n/a	30	1	n/a	n/a	n/a	n/a	right
173.780	0.381	correct	0.381	grate	n/a	30	1	n/a	n/a	n/a	n/a	right
174.680	0.442	correct	0.442	grate	n/a	30	1	n/a	n/a	n/a	n/a	left
175.630	0.444	correct	0.444	grate	n/a	30	1	n/a	n/a	n/a	n/a	left
176.597	0.453	correct	0.453	grate	n/a	30	1	n/a	n/a	n/a	n/a	left
177.563	0.495	correct	0.495	grate	n/a	30	1	n/a	n/a	n/a	n/a	right
178.580	0.390	correct	0.390	grate	n/a	30	1	n/a	n/a	n/a	n/a	right
179.480	0.450	correct	0.450	grate	n/a	30	1	n/a	n/a	n/a	n/a	left
180.446	0.100	incorrect	0.100	grate	n/a	30	1	n/a	n/a	n/a	n/a	right
182.012	2.000	face	1.626	localizer	weak unrelated	31	1	6	7	7	182.0	n/a
186.012	2.000	face	1.946	localizer	weak unrelated	32	1	6	8	8	186.0	n/a
190.012	2.000	face	2.042	localizer	weak unrelated	33	1	6	9	9	190.0	n/a
194.011	2.000	face	2.154	localizer	weak related	34	1	6	10	10	194.0	n/a
198.011	2.000	face	1.163	localizer	strong unrelated	35	1	6	11	11	198.0	n/a
202.011	2.000	face	1.195	localizer	weak unrelated	36	1	6	12	12	202.0	n/a
206.050	0.928	correct	0.928	grate	n/a	36	1	n/a	n/a	n/a	n/a	right
207.495	0.474	correct	0.474	grate	n/a	36	1	n/a	n/a	n/a	n/a	left
208.478	0.404	correct	0.404	grate	n/a	36	1	n/a	n/a	n/a	n/a	right
209.394	0.407	correct	0.407	grate	n/a	36	1	n/a	n/a	n/a	n/a	right
210.311	0.475	correct	0.475	grate	n/a	36	1	n/a	n/a	n/a	n/a	right
211.294	0.443	correct	0.443	grate	n/a	36	1	n/a	n/a	n/a	n/a	left
212.261	0.445	correct	0.445	grate	n/a	36	1	n/a	n/a	n/a	n/a	left
213.228	0.454	correct	0.454	grate	n/a	36	1	n/a	n/a	n/a	n/a	right
214.194	0.488	incorrect	0.488	grate	n/a	36	1	n/a	n/a	n/a	n/a	right
215.194	0.568	correct	0.568	grate	n/a	36	1	n/a	n/a	n/a	n/a	left
216.277	0.266	incorrect	0.266	grate	n/a	36	1	n/a	n/a	n/a	n/a	right
218.010	2.000	object	1.748	localizer	weak related	37	1	7	85	113	218.0	n/a
222.009	2.000	object	1.476	localizer	weak related	38	1	7	86	114	222.0	n/a
226.009	2.000	object	2.084	localizer	weak unrelated	39	1	7	87	115	226.0	n/a
230.009	2.000	object	1.700	localizer	weak unrelated	40	1	7	88	116	230.0	n/a
234.008	2.000	object	2.341	localizer	weak related	41	1	7	89	117	234.0	n/a
238.008	2.000	object	1.741	localizer	weak unrelated	42	1	7	90	118	238.0	n/a
242.047	0.802	correct	0.802	grate	n/a	42	1	n/a	n/a	n/a	n/a	right
243.359	0.418	correct	0.418	grate	n/a	42	1	n/a	n/a	n/a	n/a	left
244.292	0.405	correct	0.405	grate	n/a	42	1	n/a	n/a	n/a	n/a	right
245.209	0.441	correct	0.441	grate	n/a	42	1	n/a	n/a	n/a	n/a	right
246.159	0.571	correct	0.571	grate	n/a	42	1	n/a	n/a	n/a	n/a	left
247.242	1.063	correct	1.063	grate	n/a	42	1	n/a	n/a	n/a	n/a	right
248.825	0.464	correct	0.464	grate	n/a	42	1	n/a	n/a	n/a	n/a	left
249.808	0.737	correct	0.737	grate	n/a	42	1	n/a	n/a	n/a	n/a	left
251.058	0.383	correct	0.383	grate	n/a	42	1	n/a	n/a	n/a	n/a	right
251.958	0.451	correct	0.451	grate	n/a	42	1	n/a	n/a	n/a	n/a	left
252.925	0.100	incorrect	0.100	grate	n/a	42	1	n/a	n/a	n/a	n/a	right
254.024	2.000	face	1.677	localizer	weak unrelated	43	1	8	13	13	254.0	n/a
258.007	2.000	face	1.720	localizer	weak related	44	1	8	14	14	258.0	n/a
262.023	2.000	face	1.815	localizer	weak unrelated	45	1	8	15	15	262.0	n/a
266.023	2.000	face	1.638	localizer	weak unrelated	46	1	8	16	16	266.0	n/a
270.023	2.000	face	2.318	localizer	weak unrelated	47	1	8	17	17	270.0	n/a
274.022	2.000	face	1.566	localizer	weak unrelated	48	1	8	18	18	274.0	n/a
278.062	0.747	correct	0.747	grate	n/a	48	1	n/a	n/a	n/a	n/a	right
279.323	0.414	correct	0.414	grate	n/a	48	1	n/a	n/a	n/a	n/a	left
280.256	0.393	correct	0.393	grate	n/a	48	1	n/a	n/a	n/a	n/a	left
281.156	0.421	correct	0.421	grate	n/a	48	1	n/a	n/a	n/a	n/a	right
282.089	0.471	correct	0.471	grate	n/a	48	1	n/a	n/a	n/a	n/a	right
283.073	0.440	correct	0.440	grate	n/a	48	1	n/a	n/a	n/a	n/a	left
284.023	0.426	correct	0.426	grate	n/a	48	1	n/a	n/a	n/a	n/a	left
284.973	0.429	correct	0.429	grate	n/a	48	1	n/a	n/a	n/a	n/a	right
285.922	0.375	correct	0.375	grate	n/a	48	1	n/a	n/a	n/a	n/a	right
286.806	0.427	correct	0.427	grate	n/a	48	1	n/a	n/a	n/a	n/a	right
287.756	0.017	correct	0.017	grate	n/a	48	1	n/a	n/a	n/a	n/a	right
288.307	0.249	incorrect	0.249	grate	n/a	48	1	n/a	n/a	n/a	n/a	right
290.021	2.000	scene	1.336	localizer	weak related	49	1	9	157	213	290.0	n/a
294.021	2.000	scene	1.392	localizer	weak unrelated	50	1	9	158	214	294.0	n/a
298.021	2.000	scene	1.408	localizer	weak related	51	1	9	159	215	298.0	n/a
302.020	2.000	scene	1.736	localizer	weak unrelated	52	1	9	160	216	302.0	n/a
306.020	2.000	scene	1.712	localizer	weak unrelated	53	1	9	161	217	306.0	n/a
310.020	2.000	scene	2.289	localizer	weak related	54	1	9	162	218	310.0	n/a
314.059	0.847	correct	0.847	grate	n/a	54	1	n/a	n/a	n/a	n/a	right
315.421	0.499	correct	0.499	grate	n/a	54	1	n/a	n/a	n/a	n/a	left
316.437	0.435	correct	0.435	grate	n/a	54	1	n/a	n/a	n/a	n/a	right
317.387	0.405	correct	0.405	grate	n/a	54	1	n/a	n/a	n/a	n/a	right
318.303	0.481	correct	0.481	grate	n/a	54	1	n/a	n/a	n/a	n/a	left
319.303	0.425	correct	0.425	grate	n/a	54	1	n/a	n/a	n/a	n/a	right
320.237	0.412	correct	0.412	grate	n/a	54	1	n/a	n/a	n/a	n/a	right
321.170	0.422	correct	0.422	grate	n/a	54	1	n/a	n/a	n/a	n/a	left
322.103	0.417	correct	0.417	grate	n/a	54	1	n/a	n/a	n/a	n/a	right
323.037	0.420	correct	0.420	grate	n/a	54	1	n/a	n/a	n/a	n/a	left
323.970	0.359	correct	0.359	grate	n/a	54	1	n/a	n/a	n/a	n/a	right
324.836	0.100	incorrect	0.100	grate	n/a	54	1	n/a	n/a	n/a	n/a	right
