onset	duration	trial_type	response_time	task_type	response_type	update_cond	cate_c	cate_b	cate_o	trial_id	word_id	img_id	stim_c	stim_b	design_onset
2.014	2.000	no response	n/a	practice a-b	no response	restudy	object	scene	face	1	124	124	176	228	2.000
6.513	2.000	no response	n/a	practice a-b	no response	test	object	face	scene	2	19	19	167	19	6.500
11.012	2.000	incorrect	0.607	practice a-b	object	test	object	face	scene	3	21	21	169	21	11.000
15.512	2.000	no response	n/a	practice a-b	no response	test	face	scene	object	4	115	115	91	219	15.500
20.011	2.000	incorrect	0.012	practice a-b	face	restudy	face	object	scene	5	62	62	62	114	20.000
24.510	2.000	no response	n/a	practice a-b	no response	test	face	scene	object	6	117	117	93	221	24.500
29.009	2.000	incorrect	0.186	practice a-b	scene	test	face	object	scene	7	65	65	65	117	29.000
33.508	2.000	correct	0.253	practice a-b	object	restudy	scene	object	face	8	86	86	286	138	33.500
38.008	2.000	correct	0.430	practice a-b	face	test	scene	face	object	9	39	39	263	39	38.000
42.507	2.000	don't know	0.144	practice a-b	don't know	restudy	scene	object	face	10	84	84	284	136	42.500
47.023	2.000	no response	n/a	practice a-b	no response	test	face	object	scene	11	53	53	53	105	47.000
51.522	2.000	incorrect	0.308	practice a-b	face	test	scene	object	face	12	73	73	273	125	51.500
56.021	2.000	correct	0.279	practice a-b	face	test	scene	face	object	13	27	27	251	27	56.000
60.520	2.000	don't know	0.018	practice a-b	don't know	test	object	face	scene	14	11	11	159	11	60.500
65.020	2.000	don't know	0.200	practice a-b	don't know	restudy	scene	object	face	15	78	78	278	130	65.000
69.519	2.000	no response	n/a	practice a-b	no response	restudy	scene	face	object	16	42	42	266	42	69.500
74.018	2.000	no response	n/a	practice a-b	no response	restudy	face	object	scene	17	60	60	60	112	74.000
78.517	2.000	incorrect	0.463	practice a-b	object	restudy	object	scene	face	18	144	144	196	248	78.500
83.016	2.000	correct	0.137	practice a-b	scene	test	face	scene	object	19	109	109	85	213	83.000
87.516	2.000	correct	0.162	practice a-b	face	test	scene	face	object	20	43	43	267	43	87.500
92.015	2.000	incorrect	0.388	practice a-b	face	test	object	scene	face	21	133	133	185	237	92.000
96.514	2.000	incorrect	0.278	practice a-b	face	restudy	object	scene	face	22	130	130	182	234	96.500
101.013	2.000	correct	0.280	practice a-b	face	restudy	scene	face	object	23	36	36	260	36	101.000
105.513	2.000	don't know	0.080	practice a-b	don't know	restudy	scene	face	object	24	28	28	252	28	105.500
110.012	2.000	correct	0.547	practice a-b	face	restudy	object	face	scene	25	6	6	154	6	110.000
114.511	2.000	no response	n/a	practice a-b	no response	test	object	face	scene	26	17	17	165	17	114.500
119.010	2.000	correct	0.399	practice a-b	object	test	scene	object	face	27	81	81	281	133	119.000
123.509	2.000	correct	0.608	practice a-b	face	test	object	face	scene	28	15	15	163	15	123.500
128.009	2.000	correct	0.491	practice a-b	face	test	scene	face	object	29	41	41	265	41	128.000
132.508	2.000	correct	0.572	practice a-b	face	test	object	face	scene	30	1	1	149	1	132.500
137.007	2.000	incorrect	0.205	practice a-b	scene	test	face	object	scene	31	71	71	71	123	137.000
141.523	2.000	correct	0.480	practice a-b	object	test	face	object	scene	32	51	51	51	103	141.500
146.022	2.000	correct	0.400	practice a-b	scene	test	object	scene	face	33	125	125	177	229	146.000
150.521	2.000	incorrect	0.299	practice a-b	object	restudy	object	scene	face	34	128	128	180	232	150.500
155.020	2.000	correct	0.190	practice a-b	face	test	scene	face	object	35	47	47	271	47	155.000
159.520	2.000	correct	0.166	practice a-b	scene	restudy	face	scene	object	36	100	100	76	204	159.500
164.019	2.000	correct	0.144	practice a-b	object	test	face	object	scene	37	63	63	63	115	164.000
168.518	2.000	incorrect	0.546	practice a-b	face	test	scene	object	face	38	83	83	283	135	168.500
173.017	2.000	don't know	0.055	practice a-b	don't know	test	face	object	scene	39	67	67	67	119	173.000
177.517	2.000	incorrect	0.350	practice a-b	object	restudy	object	face	scene	40	8	8	156	8	177.500
182.016	2.000	incorrect	0.343	practice a-b	scene	restudy	scene	object	face	41	74	74	274	126	182.000
186.515	2.000	don't know	0.513	practice a-b	don't know	test	scene	object	face	42	95	95	295	147	186.500
191.014	2.000	incorrect	0.164	practice a-b	face	restudy	scene	object	face	43	94	94	294	146	191.000
195.513	2.000	incorrect	0.956	practice a-b	scene	test	scene	object	face	44	85	85	285	137	195.500
200.013	2.000	correct	0.607	practice a-b	object	test	scene	object	face	45	77	77	277	129	200.000
204.512	2.000	incorrect	0.394	practice a-b	face	restudy	object	scene	face	46	142	142	194	246	204.500
209.011	2.000	incorrect	0.500	practice a-b	face	restudy	object	scene	face	47	134	134	186	238	209.000
213.510	2.000	no response	n/a	practice a-b	no response	restudy	scene	face	object	48	32	32	256	32	213.500
218.009	2.000	correct	0.339	practice a-b	face	test	scene	face	object	49	37	37	261	37	218.000
222.509	2.000	incorrect	0.317	practice a-b	scene	test	scene	face	object	50	33	33	257	33	222.500
227.008	2.000	correct	0.553	practice a-b	face	restudy	scene	face	object	51	40	40	264	40	227.000
231.507	2.000	correct	0.251	practice a-b	face	restudy	scene	face	object	52	44	44	268	44	231.500
236.006	2.000	correct	0.302	practice a-b	scene	test	face	scene	object	53	113	113	89	217	236.000
240.522	2.000	incorrect	0.646	practice a-b	face	restudy	face	object	scene	54	50	50	50	102	240.500
245.021	2.000	correct	0.712	practice a-b	face	restudy	scene	face	object	55	46	46	270	46	245.000
249.521	2.000	correct	0.825	practice a-b	face	restudy	object	face	scene	56	14	14	162	14	249.500
254.020	2.000	no response	n/a	practice a-b	no response	restudy	face	object	scene	57	56	56	56	108	254.000
258.519	2.000	no response	n/a	practice a-b	no response	restudy	face	object	scene	58	52	52	52	104	258.500
263.018	2.000	correct	0.512	practice a-b	object	restudy	scene	object	face	59	88	88	288	140	263.000
267.517	2.000	correct	0.275	practice a-b	scene	restudy	object	scene	face	60	140	140	192	244	267.500
272.017	2.000	correct	0.365	practice a-b	scene	test	object	scene	face	61	141	141	193	245	272.000
276.516	2.000	incorrect	0.487	practice a-b	object	restudy	object	face	scene	62	24	24	172	24	276.500
281.015	2.000	correct	0.978	practice a-b	face	test	scene	face	object	63	29	29	253	29	281.000
285.514	2.000	correct	0.476	practice a-b	face	restudy	object	face	scene	64	12	12	160	12	285.500
290.013	2.000	correct	0.566	practice a-b	face	test	object	face	scene	65	23	23	171	23	290.000
294.513	2.000	incorrect	0.162	practice a-b	scene	test	scene	object	face	66	89	89	289	141	294.500
299.012	2.000	correct	0.339	practice a-b	face	test	object	face	scene	67	3	3	151	3	299.000
303.511	2.000	don't know	0.012	practice a-b	don't know	test	scene	object	face	68	87	87	287	139	303.500
308.010	2.000	incorrect	0.559	practice a-b	object	restudy	face	scene	object	69	120	120	96	224	308.000
312.510	2.000	incorrect	0.304	practice a-b	scene	restudy	object	face	scene	70	22	22	170	22	312.500
317.009	2.000	don't know	0.750	practice a-b	don't know	test	face	scene	object	71	103	103	79	207	317.000
321.508	2.000	incorrect	0.569	practice a-b	face	restudy	face	scene	object	72	106	106	82	210	321.500
326.007	2.000	no response	n/a	practice a-b	no response	test	face	object	scene	73	57	57	57	109	326.000
330.523	2.000	don't know	0.859	practice a-b	don't know	test	face	object	scene	74	55	55	55	107	330.500
335.022	2.000	correct	0.775	practice a-b	scene	restudy	face	scene	object	75	114	114	90	218	335.000
339.521	2.000	incorrect	0.778	practice a-b	object	restudy	face	scene	object	76	110	110	86	214	339.500
344.021	2.000	don't know	0.436	practice a-b	don't know	test	scene	face	object	77	25	25	249	25	344.000
348.520	2.000	incorrect	0.480	practice a-b	face	restudy	face	scene	object	78	112	112	88	216	348.500
353.019	2.000	correct	0.712	practice a-b	scene	test	object	scene	face	79	121	121	173	225	353.000
357.518	2.000	incorrect	0.379	practice a-b	scene	restudy	scene	object	face	80	80	80	280	132	357.500
362.018	2.000	correct	0.350	practice a-b	face	restudy	object	face	scene	81	2	2	150	2	362.000
366.517	2.000	no response	n/a	practice a-b	no response	test	scene	object	face	82	79	79	279	131	366.500
371.016	2.000	incorrect	0.664	practice a-b	scene	test	face	object	scene	83	69	69	69	121	371.000
375.515	2.000	don't know	0.017	practice a-b	don't know	test	face	scene	object	84	107	107	83	211	375.500
380.014	2.000	incorrect	0.446	practice a-b	face	restudy	scene	object	face	85	90	90	290	142	380.000
384.514	2.000	correct	0.399	practice a-b	scene	test	object	scene	face	86	129	129	181	233	384.500
389.013	2.000	no response	n/a	practice a-b	no response	test	object	face	scene	87	13	13	161	13	389.000
393.512	2.000	don't know	0.013	practice a-b	don't know	test	face	object	scene	88	59	59	59	111	393.500
398.011	2.000	correct	0.271	practice a-b	scene	test	face	scene	object	89	111	111	87	215	398.000
402.511	2.000	don't know	0.081	practice a-b	don't know	test	object	scene	face	90	139	139	191	243	402.500
407.010	2.000	correct	0.930	practice a-b	object	test	face	object	scene	91	49	49	49	101	407.000
411.509	2.000	correct	0.654	practice a-b	face	restudy	object	face	scene	92	10	10	158	10	411.500
416.008	2.000	correct	0.528	practice a-b	scene	restudy	object	scene	face	93	132	132	184	236	416.000
420.507	2.000	no response	n/a	practice a-b	no response	restudy	scene	object	face	94	76	76	276	128	420.500
425.023	2.000	no response	n/a	practice a-b	no response	test	face	object	scene	95	61	61	61	113	425.000
429.522	2.000	correct	0.541	practice a-b	face	restudy	scene	face	object	96	48	48	272	48	429.500
434.022	2.000	incorrect	0.318	practice a-b	object	restudy	face	scene	object	97	98	98	74	202	434.000
438.521	2.000	incorrect	0.224	practice a-b	face	test	object	scene	face	98	123	123	175	227	438.500
443.020	2.000	don't know	0.442	practice a-b	don't know	restudy	face	object	scene	99	70	70	70	122	443.000
447.519	2.000	incorrect	0.243	practice a-b	object	restudy	face	scene	object	100	104	104	80	208	447.500
452.019	2.000	no response	n/a	practice a-b	no response	restudy	face	scene	object	101	102	102	78	206	452.000
456.518	2.000	no response	n/a	practice a-b	no response	restudy	scene	face	object	102	30	30	254	30	456.500
461.017	2.000	no response	n/a	practice a-b	no response	test	scene	face	object	103	45	45	269	45	461.000
465.516	2.000	correct	0.957	practice a-b	object	restudy	face	object	scene	104	58	58	58	110	465.500
470.015	2.000	incorrect	0.311	practice a-b	object	test	face	scene	object	105	101	101	77	205	470.000
474.515	2.000	correct	0.385	practice a-b	face	restudy	object	face	scene	106	16	16	164	16	474.500
479.014	2.000	incorrect	0.514	practice a-b	scene	restudy	object	face	scene	107	4	4	152	4	479.000
483.513	2.000	correct	0.348	practice a-b	scene	test	object	scene	face	108	143	143	195	247	483.500
488.012	2.000	correct	0.486	practice a-b	object	restudy	face	object	scene	109	64	64	64	116	488.000
492.511	2.000	correct	0.759	practice a-b	scene	test	object	scene	face	110	135	135	187	239	492.500
497.011	2.000	incorrect	0.777	practice a-b	scene	restudy	scene	object	face	111	92	92	292	144	497.000
501.510	2.000	correct	0.500	practice a-b	scene	restudy	face	scene	object	112	108	108	84	212	501.500
506.009	2.000	incorrect	0.433	practice a-b	face	restudy	scene	object	face	113	82	82	282	134	506.000
510.508	2.000	don't know	0.375	practice a-b	don't know	restudy	face	object	scene	114	66	66	66	118	510.500
515.007	2.000	correct	0.434	practice a-b	face	test	scene	face	object	115	35	35	259	35	515.000
519.507	2.000	don't know	0.674	practice a-b	don't know	test	object	scene	face	116	137	137	189	241	519.500
524.023	2.000	don't know	0.516	practice a-b	don't know	test	face	scene	object	117	105	105	81	209	524.000
528.522	2.000	don't know	0.447	practice a-b	don't know	restudy	face	object	scene	118	72	72	72	124	528.500
533.021	2.000	incorrect	0.147	practice a-b	object	test	face	scene	object	119	97	97	73	201	533.000
537.520	2.000	correct	0.701	practice a-b	scene	restudy	face	scene	object	120	118	118	94	222	537.500
542.019	2.000	incorrect	0.518	practice a-b	scene	test	scene	object	face	121	93	93	293	145	542.000
546.519	2.000	incorrect	0.634	practice a-b	face	test	scene	object	face	122	91	91	291	143	546.500
551.018	2.000	correct	0.180	practice a-b	face	test	scene	face	object	123	31	31	255	31	551.000
555.517	2.000	incorrect	0.413	practice a-b	face	test	object	scene	face	124	131	131	183	235	555.500
560.016	2.000	correct	0.669	practice a-b	object	restudy	scene	object	face	125	96	96	296	148	560.000
564.515	2.000	correct	0.576	practice a-b	scene	restudy	object	scene	face	126	122	122	174	226	564.500
569.015	2.000	incorrect	0.241	practice a-b	face	restudy	face	object	scene	127	68	68	68	120	569.000
573.514	2.000	incorrect	0.355	practice a-b	object	restudy	face	scene	object	128	116	116	92	220	573.500
578.013	2.000	incorrect	0.517	practice a-b	object	restudy	scene	face	object	129	34	34	258	34	578.000
582.512	2.000	incorrect	0.441	practice a-b	face	restudy	object	scene	face	130	126	126	178	230	582.500
587.011	2.000	incorrect	0.507	practice a-b	scene	restudy	face	object	scene	131	54	54	54	106	587.000
591.511	2.000	incorrect	0.517	practice a-b	face	restudy	object	scene	face	132	136	136	188	240	591.500
596.010	2.000	don't know	0.438	practice a-b	don't know	test	object	face	scene	133	5	5	153	5	596.000
600.509	2.000	correct	0.018	practice a-b	scene	test	object	scene	face	134	127	127	179	231	600.500
605.008	2.000	correct	0.398	practice a-b	object	test	scene	object	face	135	75	75	275	127	605.000
609.508	2.000	incorrect	0.445	practice a-b	scene	restudy	scene	face	object	136	38	38	262	38	609.500
614.023	2.000	incorrect	0.408	practice a-b	face	restudy	object	scene	face	137	138	138	190	242	614.000
618.523	2.000	incorrect	0.377	practice a-b	scene	restudy	object	face	scene	138	18	18	166	18	618.500
623.022	2.000	incorrect	0.297	practice a-b	scene	restudy	object	face	scene	139	20	20	168	20	623.000
627.521	2.000	correct	0.682	practice a-b	scene	test	face	scene	object	140	119	119	95	223	627.500
632.020	2.000	incorrect	0.141	practice a-b	object	test	object	face	scene	141	9	9	157	9	632.000
636.519	2.000	incorrect	0.446	practice a-b	object	test	face	scene	object	142	99	99	75	203	636.500
641.019	2.000	correct	0.329	practice a-b	face	test	object	face	scene	143	7	7	155	7	641.000
645.518	2.000	correct	0.221	practice a-b	face	restudy	scene	face	object	144	26	26	250	26	645.500
2.022	2.000	no response	n/a	practice a-b	no response	restudy	scene	face	object	145	38	38	262	38	2.000
6.521	2.000	incorrect	0.043	practice a-b	scene	restudy	face	object	scene	146	60	60	60	112	6.500
11.021	2.000	incorrect	0.413	practice a-b	object	restudy	face	scene	object	147	112	112	88	216	11.000
15.520	2.000	correct	0.479	practice a-b	scene	restudy	object	scene	face	148	136	136	188	240	15.500
20.019	2.000	correct	0.409	practice a-b	object	restudy	scene	object	face	149	82	82	282	134	20.000
24.518	2.000	incorrect	0.603	practice a-b	face	test	object	scene	face	150	123	123	175	227	24.500
29.018	2.000	incorrect	0.540	practice a-b	object	test	object	face	scene	151	9	9	157	9	29.000
33.517	2.000	incorrect	0.573	practice a-b	scene	restudy	face	object	scene	152	66	66	66	118	33.500
38.016	2.000	correct	0.418	practice a-b	scene	test	face	scene	object	153	115	115	91	219	38.000
42.515	2.000	incorrect	0.659	practice a-b	face	test	face	object	scene	154	53	53	53	105	42.500
47.014	2.000	incorrect	0.349	practice a-b	scene	test	face	object	scene	155	55	55	55	107	47.000
51.514	2.000	no response	n/a	practice a-b	no response	restudy	face	scene	object	156	104	104	80	208	51.500
56.013	2.000	incorrect	0.385	practice a-b	face	test	face	object	scene	157	61	61	61	113	56.000
60.512	2.000	correct	0.960	practice a-b	scene	test	face	scene	object	158	117	117	93	221	60.500
65.011	2.000	correct	0.643	practice a-b	object	restudy	face	object	scene	159	68	68	68	120	65.000
69.510	2.000	incorrect	0.661	practice a-b	scene	restudy	face	object	scene	160	54	54	54	106	69.500
74.009	2.000	incorrect	0.806	practice a-b	scene	restudy	scene	object	face	161	80	80	280	132	74.000
78.509	2.000	incorrect	0.345	practice a-b	object	restudy	object	scene	face	162	126	126	178	230	78.500
83.025	2.000	incorrect	0.506	practice a-b	scene	test	object	face	scene	163	11	11	159	11	83.000
87.507	2.000	no response	n/a	practice a-b	no response	test	object	face	scene	164	13	13	161	13	87.500
92.006	2.000	incorrect	0.568	practice a-b	face	restudy	object	scene	face	165	124	124	176	228	92.000
96.522	2.000	correct	0.697	practice a-b	face	test	object	face	scene	166	19	19	167	19	96.500
101.021	2.000	incorrect	0.340	practice a-b	object	restudy	object	face	scene	167	20	20	168	20	101.000
105.521	2.000	incorrect	0.470	practice a-b	object	test	object	scene	face	168	139	139	191	243	105.500
110.020	2.000	incorrect	0.711	practice a-b	scene	restudy	face	object	scene	169	56	56	56	108	110.000
114.519	2.000	incorrect	0.042	practice a-b	face	restudy	face	object	scene	170	72	72	72	124	114.500
119.018	2.000	no response	n/a	practice a-b	no response	test	face	scene	object	171	105	105	81	209	119.000
123.518	2.000	no response	n/a	practice a-b	no response	test	face	scene	object	172	103	103	79	207	123.500
128.017	2.000	incorrect	0.735	practice a-b	object	test	scene	face	object	173	45	45	269	45	128.000
132.516	2.000	incorrect	0.338	practice a-b	scene	test	scene	object	face	174	95	95	295	147	132.500
137.015	2.000	incorrect	0.476	practice a-b	scene	test	scene	face	object	175	33	33	257	33	137.000
141.514	2.000	incorrect	0.529	practice a-b	scene	restudy	scene	face	object	176	42	42	266	42	141.500
146.014	2.000	incorrect	0.672	practice a-b	scene	test	scene	object	face	177	73	73	273	125	146.000
150.513	2.000	incorrect	0.675	practice a-b	object	restudy	face	scene	object	178	116	116	92	220	150.500
155.012	2.000	incorrect	0.590	practice a-b	face	test	object	scene	face	179	137	137	189	241	155.000
159.511	2.000	correct	0.526	practice a-b	scene	test	face	scene	object	180	99	99	75	203	159.500
164.011	2.000	correct	0.257	practice a-b	object	restudy	scene	object	face	181	84	84	284	136	164.000
168.510	2.000	don't know	0.601	practice a-b	don't know	test	scene	object	face	182	89	89	289	141	168.500
173.009	2.000	correct	0.677	practice a-b	face	restudy	object	face	scene	183	18	18	166	18	173.000
177.508	2.000	correct	0.455	practice a-b	face	test	object	face	scene	184	5	5	153	5	177.500
182.007	2.000	no response	n/a	practice a-b	no response	restudy	face	scene	object	185	106	106	82	210	182.000
186.507	2.000	incorrect	0.322	practice a-b	object	restudy	object	face	scene	186	8	8	156	8	186.500
191.022	2.000	incorrect	0.514	practice a-b	face	restudy	object	scene	face	187	142	142	194	246	191.000
195.522	2.000	correct	0.357	practice a-b	face	test	object	face	scene	188	21	21	169	21	195.500
200.021	2.000	correct	0.255	practice a-b	object	test	face	object	scene	189	67	67	67	119	200.000
204.520	2.000	incorrect	0.471	practice a-b	scene	test	scene	object	face	190	79	79	279	131	204.500
209.019	2.000	correct	0.529	practice a-b	object	restudy	scene	object	face	191	90	90	290	142	209.000
213.519	2.000	incorrect	0.675	practice a-b	face	test	scene	object	face	192	85	85	285	137	213.500
218.018	2.000	correct	0.893	practice a-b	object	restudy	scene	object	face	193	92	92	292	144	218.000
222.517	2.000	correct	0.527	practice a-b	object	restudy	scene	object	face	194	78	78	278	130	222.500
227.016	2.000	incorrect	0.616	practice a-b	scene	restudy	scene	face	object	195	32	32	256	32	227.000
231.515	2.000	correct	0.419	practice a-b	scene	restudy	object	scene	face	196	144	144	196	248	231.500
236.015	2.000	incorrect	0.582	practice a-b	face	restudy	scene	object	face	197	74	74	274	126	236.000
240.514	2.000	correct	0.474	practice a-b	face	test	scene	face	object	198	25	25	249	25	240.500
245.013	2.000	incorrect	0.626	practice a-b	object	restudy	scene	face	object	199	28	28	252	28	245.000
249.512	2.000	no response	n/a	practice a-b	no response	test	face	object	scene	200	59	59	59	111	249.500
254.011	2.000	incorrect	0.983	practice a-b	object	restudy	face	scene	object	201	102	102	78	206	254.000
258.511	2.000	correct	0.274	practice a-b	face	restudy	scene	face	object	202	34	34	258	34	258.500
263.010	2.000	don't know	0.722	practice a-b	don't know	test	face	object	scene	203	69	69	69	121	263.000
267.509	2.000	incorrect	0.702	practice a-b	scene	restudy	scene	face	object	204	30	30	254	30	267.500
272.008	2.000	correct	0.465	practice a-b	object	restudy	face	object	scene	205	50	50	50	102	272.000
276.507	2.000	correct	0.506	practice a-b	face	restudy	object	face	scene	206	4	4	152	4	276.500
281.007	2.000	correct	0.435	practice a-b	scene	restudy	object	scene	face	207	134	134	186	238	281.000
285.523	2.000	incorrect	0.572	practice a-b	object	restudy	face	scene	object	208	120	120	96	224	285.500
290.022	2.000	incorrect	0.374	practice a-b	face	test	object	scene	face	209	131	131	183	235	290.000
294.521	2.000	incorrect	0.656	practice a-b	scene	test	scene	object	face	210	87	87	287	139	294.500
299.020	2.000	correct	0.627	practice a-b	object	test	face	object	scene	211	71	71	71	123	299.000
303.519	2.000	incorrect	0.526	practice a-b	face	restudy	face	object	scene	212	70	70	70	122	303.500
308.019	2.000	don't know	0.400	practice a-b	don't know	restudy	object	scene	face	213	128	128	180	232	308.000
312.518	2.000	incorrect	0.794	practice a-b	face	restudy	face	scene	object	214	98	98	74	202	312.500
317.017	2.000	incorrect	0.507	practice a-b	scene	test	scene	object	face	215	93	93	293	145	317.000
321.516	2.000	correct	0.501	practice a-b	object	restudy	scene	object	face	216	94	94	294	146	321.500
326.015	2.000	don't know	0.448	practice a-b	don't know	test	face	object	scene	217	57	57	57	109	326.000
330.515	2.000	correct	0.722	practice a-b	object	test	face	object	scene	218	65	65	65	117	330.500
335.014	2.000	correct	0.533	practice a-b	scene	test	face	scene	object	219	97	97	73	201	335.000
339.513	2.000	no response	n/a	practice a-b	no response	restudy	object	scene	face	220	138	138	190	242	339.500
344.012	2.000	correct	0.426	practice a-b	face	test	object	face	scene	221	17	17	165	17	344.000
348.511	2.000	incorrect	0.300	practice a-b	object	test	face	scene	object	222	107	107	83	211	348.500
353.011	2.000	correct	0.342	practice a-b	scene	restudy	object	scene	face	223	130	130	182	234	353.000
357.510	2.000	don't know	0.584	practice a-b	don't know	restudy	object	face	scene	224	22	22	170	22	357.500
362.009	2.000	correct	0.012	practice a-b	object	restudy	face	object	scene	225	62	62	62	114	362.000
366.508	2.000	correct	0.630	practice a-b	object	restudy	scene	object	face	226	76	76	276	128	366.500
371.007	2.000	incorrect	0.504	practice a-b	scene	test	scene	object	face	227	83	83	283	135	371.000
375.507	2.000	incorrect	0.923	practice a-b	object	test	face	scene	object	228	101	101	77	205	375.500
380.023	2.000	incorrect	0.582	practice a-b	face	test	object	scene	face	229	133	133	185	237	380.000
384.522	2.000	incorrect	0.466	practice a-b	face	test	scene	object	face	230	91	91	291	143	384.500
389.021	2.000	correct	0.515	practice a-b	scene	restudy	face	scene	object	231	110	110	86	214	389.000
393.520	2.000	don't know	0.333	practice a-b	don't know	restudy	face	object	scene	232	52	52	52	104	393.500
398.019	2.000	correct	0.648	practice a-b	face	restudy	object	face	scene	233	24	24	172	24	398.000
2.021	2.000	no response	n/a	practice a-b	no response	test	face	object	scene	234	69	69	69	121	2.000
6.520	2.000	don't know	0.371	practice a-b	don't know	restudy	scene	face	object	235	32	32	256	32	6.500
11.019	2.000	correct	0.813	practice a-b	scene	restudy	face	scene	object	236	104	104	80	208	11.000
15.519	2.000	incorrect	0.474	practice a-b	face	restudy	face	object	scene	237	60	60	60	112	15.500
20.018	2.000	don't know	0.618	practice a-b	don't know	restudy	face	object	scene	238	72	72	72	124	20.000
24.517	2.000	no response	n/a	practice a-b	no response	test	face	scene	object	239	105	105	81	209	24.500
29.016	2.000	correct	0.383	practice a-b	face	test	object	face	scene	240	11	11	159	11	29.000
33.516	2.000	incorrect	0.392	practice a-b	object	restudy	face	scene	object	241	116	116	92	220	33.500
38.015	2.000	correct	0.345	practice a-b	scene	test	object	scene	face	242	131	131	183	235	38.000
42.514	2.000	incorrect	0.443	practice a-b	face	restudy	object	scene	face	243	124	124	176	228	42.500
47.013	2.000	correct	0.557	practice a-b	face	restudy	object	face	scene	244	20	20	168	20	47.000
51.512	2.000	incorrect	0.575	practice a-b	scene	restudy	scene	face	object	245	30	30	254	30	51.500
56.012	2.000	incorrect	0.546	practice a-b	object	test	object	scene	face	246	133	133	185	237	56.000
60.511	2.000	don't know	0.354	practice a-b	don't know	test	scene	object	face	247	73	73	273	125	60.500
65.010	2.000	don't know	0.540	practice a-b	don't know	restudy	face	scene	object	248	112	112	88	216	65.000
69.509	2.000	no response	n/a	practice a-b	no response	restudy	face	scene	object	249	98	98	74	202	69.500
74.025	2.000	don't know	0.361	practice a-b	don't know	test	scene	object	face	250	91	91	291	143	74.000
78.508	2.000	correct	0.437	practice a-b	object	test	face	object	scene	251	59	59	59	111	78.500
83.007	2.000	correct	0.431	practice a-b	scene	test	object	scene	face	252	137	137	189	241	83.000
87.523	2.000	correct	0.601	practice a-b	object	restudy	face	object	scene	253	54	54	54	106	87.500
92.022	2.000	correct	0.435	practice a-b	scene	test	face	scene	object	254	107	107	83	211	92.000
96.521	2.000	correct	0.359	practice a-b	object	test	face	object	scene	255	55	55	55	107	96.500
101.020	2.000	correct	0.425	practice a-b	scene	restudy	object	scene	face	256	138	138	190	242	101.000
105.520	2.000	correct	0.629	practice a-b	scene	test	object	scene	face	257	139	139	191	243	105.500
110.019	2.000	correct	0.569	practice a-b	scene	restudy	face	scene	object	258	106	106	82	210	110.000
114.518	2.000	correct	0.635	practice a-b	scene	restudy	object	scene	face	259	128	128	180	232	114.500
119.017	2.000	correct	0.382	practice a-b	face	restudy	scene	face	object	260	42	42	266	42	119.000
123.517	2.000	incorrect	0.608	practice a-b	object	restudy	scene	face	object	261	38	38	262	38	123.500
128.016	2.000	incorrect	0.706	practice a-b	scene	restudy	face	object	scene	262	52	52	52	104	128.000
132.515	2.000	no response	n/a	practice a-b	no response	test	face	object	scene	263	61	61	61	113	132.500
137.014	2.000	don't know	0.644	practice a-b	don't know	test	scene	object	face	264	83	83	283	135	137.000
141.513	2.000	correct	0.623	practice a-b	object	test	scene	object	face	265	85	85	285	137	141.500
146.013	2.000	incorrect	0.626	practice a-b	scene	test	scene	object	face	266	79	79	279	131	146.000
150.512	2.000	correct	0.389	practice a-b	object	restudy	scene	object	face	267	74	74	274	126	150.500
155.011	2.000	correct	0.902	practice a-b	object	test	face	object	scene	268	57	57	57	109	155.000
159.510	2.000	correct	0.522	practice a-b	object	restudy	face	object	scene	269	70	70	70	122	159.500
164.009	2.000	don't know	0.389	practice a-b	don't know	test	scene	face	object	270	45	45	269	45	164.000
168.509	2.000	incorrect	0.663	practice a-b	scene	restudy	scene	object	face	271	80	80	280	132	168.500
173.024	2.000	incorrect	0.434	practice a-b	object	restudy	face	scene	object	272	120	120	96	224	173.000
177.507	2.000	don't know	0.548	practice a-b	don't know	test	scene	object	face	273	95	95	295	147	177.500
182.006	2.000	correct	0.921	practice a-b	face	test	scene	face	object	274	33	33	257	33	182.000
186.522	2.000	correct	0.410	practice a-b	face	test	object	face	scene	275	9	9	157	9	186.500
191.021	2.000	incorrect	0.490	practice a-b	scene	restudy	face	object	scene	276	66	66	66	118	191.000
195.520	2.000	correct	0.548	practice a-b	scene	restudy	face	scene	object	277	102	102	78	206	195.500
200.020	2.000	incorrect	0.575	practice a-b	object	test	object	scene	face	278	123	123	175	227	200.000
204.519	2.000	don't know	0.504	practice a-b	don't know	restudy	scene	face	object	279	28	28	252	28	204.500
209.018	2.000	correct	0.627	practice a-b	scene	test	face	scene	object	280	101	101	77	205	209.000
213.517	2.000	incorrect	0.614	practice a-b	object	test	object	face	scene	281	13	13	161	13	213.500
218.017	2.000	don't know	0.463	practice a-b	don't know	test	face	scene	object	282	103	103	79	207	218.000
222.516	2.000	incorrect	0.676	practice a-b	object	restudy	object	face	scene	283	22	22	170	22	222.500
227.015	2.000	no response	n/a	practice a-b	no response	test	scene	object	face	284	89	89	289	141	227.000
231.514	2.000	incorrect	0.975	practice a-b	object	restudy	object	face	scene	285	8	8	156	8	231.500
236.013	2.000	correct	0.802	practice a-b	object	test	scene	object	face	286	93	93	293	145	236.000
240.513	2.000	correct	0.596	practice a-b	scene	restudy	object	scene	face	287	126	126	178	230	240.500
245.012	2.000	incorrect	0.336	practice a-b	face	restudy	face	object	scene	288	56	56	56	108	245.000
249.511	2.000	correct	0.688	practice a-b	object	test	scene	object	face	289	87	87	287	139	249.500
254.010	2.000	incorrect	0.611	practice a-b	face	restudy	object	scene	face	290	142	142	194	246	254.000
258.510	2.000	incorrect	0.485	practice a-b	face	test	face	object	scene	291	53	53	53	105	258.500
2.016	2.000	correct	0.394	practice a-b	object	restudy	face	object	scene	292	60	60	60	112	2.000
6.515	2.000	incorrect	0.732	practice a-b	face	test	scene	object	face	293	91	91	291	143	6.500
11.014	2.000	don't know	0.326	practice a-b	don't know	test	face	scene	object	294	105	105	81	209	11.000
15.514	2.000	incorrect	0.577	practice a-b	object	test	scene	face	object	295	45	45	269	45	15.500
20.013	2.000	correct	0.396	practice a-b	face	restudy	object	face	scene	296	8	8	156	8	20.000
24.512	2.000	don't know	0.349	practice a-b	don't know	test	face	object	scene	297	69	69	69	121	24.500
29.011	2.000	correct	0.648	practice a-b	face	restudy	scene	face	object	298	38	38	262	38	29.000
33.511	2.000	incorrect	0.652	practice a-b	face	restudy	object	scene	face	299	124	124	176	228	33.500
38.010	2.000	incorrect	0.564	practice a-b	object	restudy	face	scene	object	300	98	98	74	202	38.000
42.509	2.000	correct	0.441	practice a-b	object	restudy	face	object	scene	301	56	56	56	108	42.500
47.008	2.000	incorrect	0.642	practice a-b	face	restudy	face	scene	object	302	116	116	92	220	47.000
51.524	2.000	incorrect	0.755	practice a-b	object	restudy	scene	face	object	303	32	32	256	32	51.500
56.007	2.000	don't know	0.278	practice a-b	don't know	test	scene	object	face	304	89	89	289	141	56.000
60.523	2.000	correct	0.360	practice a-b	object	restudy	scene	object	face	305	80	80	280	132	60.500
65.022	2.000	correct	0.348	practice a-b	face	test	object	face	scene	306	13	13	161	13	65.000
69.521	2.000	incorrect	0.501	practice a-b	face	restudy	object	scene	face	307	142	142	194	246	69.500
74.020	2.000	correct	0.344	practice a-b	object	restudy	face	object	scene	308	66	66	66	118	74.000
78.519	2.000	correct	0.928	practice a-b	scene	restudy	face	scene	object	309	112	112	88	216	78.500
83.019	2.000	correct	0.987	practice a-b	object	test	face	object	scene	310	61	61	61	113	83.000
87.518	2.000	correct	0.437	practice a-b	scene	test	face	scene	object	311	103	103	79	207	87.500
92.017	2.000	correct	0.318	practice a-b	object	test	scene	object	face	312	73	73	273	125	92.000
96.516	2.000	incorrect	0.575	practice a-b	object	test	object	scene	face	313	133	133	185	237	96.500
101.015	2.000	correct	0.448	practice a-b	object	test	scene	object	face	314	95	95	295	147	101.000
105.515	2.000	incorrect	0.577	practice a-b	scene	test	scene	object	face	315	79	79	279	131	105.500
110.014	2.000	incorrect	0.906	practice a-b	scene	restudy	scene	face	object	316	30	30	254	30	110.000
114.513	2.000	incorrect	0.485	practice a-b	scene	restudy	face	object	scene	317	72	72	72	124	114.500
119.012	2.000	no response	n/a	practice a-b	no response	restudy	object	face	scene	318	22	22	170	22	119.000
123.511	2.000	incorrect	0.842	practice a-b	scene	test	face	object	scene	319	53	53	53	105	123.500
128.011	2.000	correct	0.467	practice a-b	scene	test	object	scene	face	320	123	123	175	227	128.000
132.510	2.000	incorrect	0.318	practice a-b	face	test	scene	object	face	321	83	83	283	135	132.500
137.009	2.000	correct	0.399	practice a-b	face	restudy	scene	face	object	322	28	28	252	28	137.000
141.508	2.000	incorrect	0.351	practice a-b	object	restudy	face	scene	object	323	120	120	96	224	141.500
146.008	2.000	correct	0.448	practice a-b	object	restudy	face	object	scene	324	52	52	52	104	146.000
2.016	2.000	incorrect	0.816	practice a-b	face	restudy	object	scene	face	325	142	142	194	246	2.000
6.515	2.000	incorrect	0.623	practice a-b	object	restudy	scene	face	object	326	30	30	254	30	6.500
11.015	2.000	no response	n/a	practice a-b	no response	test	scene	object	face	327	89	89	289	141	11.000
15.514	2.000	incorrect	0.395	practice a-b	scene	restudy	object	face	scene	328	22	22	170	22	15.500
20.013	2.000	incorrect	0.581	practice a-b	object	test	object	scene	face	329	133	133	185	237	20.000
24.512	2.000	correct	0.230	practice a-b	scene	restudy	face	scene	object	330	98	98	74	202	24.500
29.011	2.000	no response	n/a	practice a-b	no response	restudy	scene	face	object	331	32	32	256	32	29.000
33.511	2.000	incorrect	0.451	practice a-b	face	test	face	object	scene	332	53	53	53	105	33.500
38.010	2.000	incorrect	0.442	practice a-b	scene	test	scene	object	face	333	79	79	279	131	38.000
42.509	2.000	correct	0.236	practice a-b	scene	restudy	object	scene	face	334	124	124	176	228	42.500
47.008	2.000	incorrect	0.517	practice a-b	object	restudy	face	scene	object	335	116	116	92	220	47.000
51.507	2.000	incorrect	0.601	practice a-b	face	test	face	scene	object	336	105	105	81	209	51.500
56.007	2.000	don't know	0.050	practice a-b	don't know	restudy	face	object	scene	337	72	72	72	124	56.000
60.522	2.000	incorrect	0.321	practice a-b	object	test	scene	face	object	338	45	45	269	45	60.500
65.022	2.000	correct	0.508	practice a-b	object	test	scene	object	face	339	91	91	291	143	65.000
69.521	2.000	correct	0.453	practice a-b	scene	restudy	face	scene	object	340	120	120	96	224	69.500
74.020	2.000	don't know	0.407	practice a-b	don't know	test	face	object	scene	341	69	69	69	121	74.000
78.519	2.000	correct	0.562	practice a-b	object	test	scene	object	face	342	83	83	283	135	78.500
2.016	2.000	correct	0.596	practice a-b	object	test	scene	object	face	343	79	79	279	131	2.000
6.515	2.000	correct	0.441	practice a-b	scene	restudy	object	scene	face	344	142	142	194	246	6.500
11.014	2.000	incorrect	0.522	practice a-b	scene	test	face	object	scene	345	69	69	69	121	11.000
15.514	2.000	incorrect	0.594	practice a-b	scene	test	scene	face	object	346	45	45	269	45	15.500
20.013	2.000	don't know	0.014	practice a-b	don't know	test	face	scene	object	347	105	105	81	209	20.000
24.512	2.000	correct	0.942	practice a-b	scene	restudy	face	scene	object	348	116	116	92	220	24.500
29.011	2.000	incorrect	0.649	practice a-b	scene	restudy	face	object	scene	349	72	72	72	124	29.000
33.511	2.000	correct	0.483	practice a-b	scene	test	object	scene	face	350	133	133	185	237	33.500
38.010	2.000	incorrect	0.388	practice a-b	scene	restudy	scene	face	object	351	32	32	256	32	38.000
42.509	2.000	correct	0.535	practice a-b	object	test	face	object	scene	352	53	53	53	105	42.500
47.008	2.000	incorrect	0.641	practice a-b	object	restudy	object	face	scene	353	22	22	170	22	47.000
51.507	2.000	incorrect	0.442	practice a-b	scene	test	scene	object	face	354	89	89	289	141	51.500
56.007	2.000	incorrect	0.597	practice a-b	scene	restudy	scene	face	object	355	30	30	254	30	56.000
2.016	2.000	incorrect	0.605	practice a-b	object	restudy	object	face	scene	356	22	22	170	22	2.000
6.515	2.000	incorrect	0.389	practice a-b	scene	restudy	scene	face	object	357	32	32	256	32	6.500
11.014	2.000	incorrect	0.319	practice a-b	scene	test	face	object	scene	358	69	69	69	121	11.000
15.514	2.000	incorrect	0.058	practice a-b	object	restudy	scene	face	object	359	30	30	254	30	15.500
20.013	2.000	no response	n/a	practice a-b	no response	test	scene	face	object	360	45	45	269	45	20.000
24.512	2.000	incorrect	0.381	practice a-b	face	restudy	face	object	scene	361	72	72	72	124	24.500
29.011	2.000	correct	0.094	practice a-b	scene	test	face	scene	object	362	105	105	81	209	29.000
33.510	2.000	incorrect	0.470	practice a-b	scene	test	scene	object	face	363	89	89	289	141	33.500
2.016	2.000	correct	0.560	practice a-b	face	restudy	scene	face	object	364	30	30	254	30	2.000
6.516	2.000	correct	0.386	practice a-b	face	test	scene	face	object	365	45	45	269	45	6.500
11.015	2.000	correct	0.745	practice a-b	object	test	scene	object	face	366	89	89	289	141	11.000
15.514	2.000	no response	n/a	practice a-b	no response	restudy	scene	face	object	367	32	32	256	32	15.500
20.013	2.000	incorrect	0.223	practice a-b	face	restudy	face	object	scene	368	72	72	72	124	20.000
24.512	2.000	correct	0.640	practice a-b	object	test	face	object	scene	369	69	69	69	121	24.500
29.011	2.000	correct	0.682	practice a-b	face	restudy	object	face	scene	370	22	22	170	22	29.000
2.016	2.000	correct	0.290	practice a-b	face	restudy	scene	face	object	371	32	32	256	32	2.000
6.515	2.000	incorrect	0.452	practice a-b	face	restudy	face	object	scene	372	72	72	72	124	6.500
2.016	2.000	incorrect	0.316	practice a-b	face	restudy	face	object	scene	373	72	72	72	124	2.000
2.016	2.000	correct	0.540	practice a-b	object	restudy	face	object	scene	374	72	72	72	124	2.000
