onset	duration	trial_type	response_time	task_type	response_type	update_cond	cate_c	cate_b	cate_o	trial_id	word_id	img_id	stim_c	stim_b	design_onset
2.406	2.000	no response	n/a	review a-b	no response	restudy	scene	face	object	1	31	31	255	31	2.000
6.672	2.000	correct	0.531	review a-b	scene	restudy	object	scene	face	2	133	133	185	237	6.500
11.020	2.000	incorrect	0.281	review a-b	scene	restudy	scene	object	face	3	81	81	281	133	11.000
15.519	2.000	correct	0.354	review a-b	scene	test	face	scene	object	4	120	120	96	224	15.500
20.017	2.000	incorrect	0.409	review a-b	face	test	object	scene	face	5	126	126	178	230	20.000
24.516	2.000	incorrect	0.353	review a-b	object	test	face	scene	object	6	106	106	82	210	24.500
29.015	2.000	correct	0.265	review a-b	scene	test	face	scene	object	7	116	116	92	220	29.000
33.514	2.000	incorrect	0.464	review a-b	object	restudy	object	scene	face	8	137	137	189	241	33.500
38.013	2.000	incorrect	0.500	review a-b	scene	restudy	face	object	scene	9	49	49	49	101	38.000
42.511	2.000	correct	0.354	review a-b	object	restudy	face	object	scene	10	55	55	55	107	42.500
47.010	2.000	incorrect	0.333	review a-b	scene	restudy	scene	object	face	11	73	73	273	125	47.000
51.509	2.000	incorrect	0.266	review a-b	scene	restudy	scene	face	object	12	43	43	267	43	51.500
56.007	2.000	correct	0.424	review a-b	object	test	scene	object	face	13	92	92	292	144	56.000
60.522	2.000	correct	0.400	review a-b	face	test	object	face	scene	14	2	2	150	2	60.500
65.021	2.000	incorrect	0.588	review a-b	face	restudy	scene	object	face	15	87	87	287	139	65.000
69.520	2.000	incorrect	0.307	review a-b	scene	restudy	scene	face	object	16	45	45	269	45	69.500
74.018	2.000	incorrect	0.278	review a-b	face	restudy	face	scene	object	17	113	113	89	217	74.000
78.517	2.000	incorrect	0.287	review a-b	scene	restudy	scene	object	face	18	91	91	291	143	78.500
83.016	2.000	correct	0.496	review a-b	scene	restudy	face	scene	object	19	107	107	83	211	83.000
87.514	2.000	correct	0.453	review a-b	scene	restudy	face	scene	object	20	117	117	93	221	87.500
92.013	2.000	incorrect	0.306	review a-b	object	restudy	scene	face	object	21	41	41	265	41	92.000
96.512	2.000	incorrect	0.633	review a-b	scene	test	scene	face	object	22	46	46	270	46	96.500
101.010	2.000	incorrect	0.381	review a-b	scene	test	object	face	scene	23	6	6	154	6	101.000
105.509	2.000	correct	0.321	review a-b	face	restudy	object	face	scene	24	17	17	165	17	105.500
110.008	2.000	correct	0.324	review a-b	object	test	face	object	scene	25	64	64	64	116	110.000
114.523	2.000	incorrect	0.481	review a-b	scene	restudy	scene	face	object	26	47	47	271	47	114.500
119.021	2.000	correct	0.319	review a-b	object	test	scene	object	face	27	94	94	294	146	119.000
123.520	2.000	incorrect	0.442	review a-b	scene	restudy	scene	object	face	28	89	89	289	141	123.500
128.019	2.000	correct	0.577	review a-b	face	test	scene	face	object	29	36	36	260	36	128.000
132.517	2.000	correct	0.507	review a-b	face	restudy	scene	face	object	30	25	25	249	25	132.500
137.016	2.000	incorrect	0.285	review a-b	object	restudy	face	scene	object	31	101	101	77	205	137.000
141.514	2.000	incorrect	0.324	review a-b	object	test	object	face	scene	32	10	10	158	10	141.500
146.013	2.000	correct	0.425	review a-b	scene	test	face	scene	object	33	104	104	80	208	146.000
150.512	2.000	incorrect	0.275	review a-b	object	restudy	object	scene	face	34	139	139	191	243	150.500
155.010	2.000	incorrect	0.498	review a-b	scene	test	object	face	scene	35	24	24	172	24	155.000
159.509	2.000	incorrect	0.447	review a-b	object	restudy	object	scene	face	36	129	129	181	233	159.500
164.008	2.000	correct	0.405	review a-b	face	restudy	scene	face	object	37	27	27	251	27	164.000
168.523	2.000	correct	0.331	review a-b	face	test	object	face	scene	38	16	16	164	16	168.500
173.021	2.000	correct	0.549	review a-b	scene	test	object	scene	face	39	128	128	180	232	173.000
177.520	2.000	correct	0.335	review a-b	scene	restudy	object	scene	face	40	143	143	195	247	177.500
182.019	2.000	correct	0.396	review a-b	object	test	face	object	scene	41	56	56	56	108	182.000
186.517	2.000	incorrect	0.569	review a-b	scene	restudy	face	object	scene	42	53	53	53	105	186.500
191.016	2.000	correct	0.478	review a-b	scene	restudy	face	scene	object	43	119	119	95	223	191.000
195.515	2.000	incorrect	0.480	review a-b	scene	test	scene	face	object	44	30	30	254	30	195.500
200.013	2.000	incorrect	0.444	review a-b	scene	restudy	face	object	scene	45	63	63	63	115	200.000
204.512	2.000	correct	0.393	review a-b	scene	test	object	scene	face	46	124	124	176	228	204.500
209.010	2.000	incorrect	0.362	review a-b	object	test	scene	face	object	47	28	28	252	28	209.000
213.509	2.000	don't know	0.468	review a-b	don't know	test	face	scene	object	48	108	108	84	212	213.500
218.008	2.000	incorrect	0.537	review a-b	scene	restudy	scene	object	face	49	77	77	277	129	218.000
222.523	2.000	correct	0.353	review a-b	scene	restudy	object	scene	face	50	121	121	173	225	222.500
227.022	2.000	correct	0.172	review a-b	face	restudy	object	face	scene	51	19	19	167	19	227.000
231.520	2.000	correct	0.235	review a-b	scene	test	object	scene	face	52	144	144	196	248	231.500
236.019	2.000	incorrect	0.526	review a-b	scene	restudy	scene	face	object	53	29	29	253	29	236.000
240.517	2.000	correct	0.372	review a-b	scene	test	face	scene	object	54	118	118	94	222	240.500
245.016	2.000	correct	0.245	review a-b	object	restudy	scene	object	face	55	95	95	295	147	245.000
249.515	2.000	correct	0.302	review a-b	scene	test	object	scene	face	56	134	134	186	238	249.500
254.013	2.000	incorrect	0.358	review a-b	object	restudy	object	face	scene	57	13	13	161	13	254.000
258.512	2.000	correct	0.320	review a-b	scene	restudy	face	scene	object	58	109	109	85	213	258.500
263.011	2.000	correct	0.306	review a-b	face	restudy	object	face	scene	59	23	23	171	23	263.000
267.509	2.000	correct	0.301	review a-b	object	test	scene	object	face	60	96	96	296	148	267.500
272.008	2.000	incorrect	0.438	review a-b	scene	test	scene	face	object	61	32	32	256	32	272.000
276.523	2.000	correct	0.283	review a-b	face	restudy	object	face	scene	62	9	9	157	9	276.500
281.022	2.000	correct	0.307	review a-b	scene	test	face	scene	object	63	98	98	74	202	281.000
285.520	2.000	incorrect	0.787	review a-b	scene	restudy	scene	object	face	64	85	85	285	137	285.500
290.019	2.000	don't know	0.269	review a-b	don't know	restudy	object	face	scene	65	7	7	155	7	290.000
294.518	2.000	don't know	0.380	review a-b	don't know	test	scene	object	face	66	82	82	282	134	294.500
299.016	2.000	correct	0.320	review a-b	face	test	scene	face	object	67	38	38	262	38	299.000
303.515	2.000	incorrect	0.373	review a-b	scene	test	face	object	scene	68	72	72	72	124	303.500
308.014	2.000	incorrect	0.321	review a-b	face	test	face	scene	object	69	100	100	76	204	308.000
312.512	2.000	correct	0.358	review a-b	object	test	face	object	scene	70	58	58	58	110	312.500
317.011	2.000	incorrect	0.286	review a-b	face	restudy	face	scene	object	71	97	97	73	201	317.000
321.509	2.000	incorrect	0.547	review a-b	scene	test	scene	object	face	72	76	76	276	128	321.500
326.025	2.000	incorrect	0.769	review a-b	face	restudy	object	scene	face	73	125	125	177	229	326.000
330.523	2.000	incorrect	0.373	review a-b	face	test	face	scene	object	74	114	114	90	218	330.500
335.022	2.000	don't know	0.474	review a-b	don't know	test	face	scene	object	75	112	112	88	216	335.000
339.520	2.000	correct	0.404	review a-b	object	restudy	face	object	scene	76	51	51	51	103	339.500
344.019	2.000	correct	0.449	review a-b	face	test	object	face	scene	77	14	14	162	14	344.000
348.518	2.000	correct	0.295	review a-b	object	test	face	object	scene	78	50	50	50	102	348.500
353.016	2.000	correct	0.344	review a-b	face	test	scene	face	object	79	34	34	258	34	353.000
357.515	2.000	correct	0.760	review a-b	scene	test	object	scene	face	80	130	130	182	234	357.500
362.014	2.000	correct	0.491	review a-b	object	test	scene	object	face	81	86	86	286	138	362.000
366.512	2.000	correct	0.451	review a-b	face	restudy	scene	face	object	82	37	37	261	37	366.500
371.011	2.000	incorrect	0.468	review a-b	object	restudy	scene	face	object	83	39	39	263	39	371.000
375.509	2.000	incorrect	0.618	review a-b	scene	test	scene	object	face	84	80	80	280	132	375.500
380.008	2.000	correct	0.625	review a-b	scene	restudy	face	scene	object	85	115	115	91	219	380.000
384.507	2.000	correct	0.561	review a-b	object	restudy	scene	object	face	86	83	83	283	135	384.500
389.022	2.000	incorrect	0.390	review a-b	scene	restudy	scene	object	face	87	79	79	279	131	389.000
393.521	2.000	correct	0.500	review a-b	object	restudy	face	object	scene	88	65	65	65	117	393.500
398.019	2.000	correct	0.827	review a-b	scene	test	object	scene	face	89	132	132	184	236	398.000
402.518	2.000	correct	0.278	review a-b	scene	restudy	face	scene	object	90	99	99	75	203	402.500
407.017	2.000	incorrect	0.413	review a-b	face	restudy	object	scene	face	91	135	135	187	239	407.000
411.515	2.000	incorrect	0.432	review a-b	object	test	object	face	scene	92	8	8	156	8	411.500
416.014	2.000	correct	0.409	review a-b	face	restudy	object	face	scene	93	3	3	151	3	416.000
420.512	2.000	correct	0.395	review a-b	object	test	face	object	scene	94	54	54	54	106	420.500
425.011	2.000	correct	0.323	review a-b	scene	test	object	scene	face	95	138	138	190	242	425.000
429.510	2.000	correct	0.419	review a-b	face	test	object	face	scene	96	18	18	166	18	429.500
434.008	2.000	incorrect	0.589	review a-b	object	restudy	face	scene	object	97	103	103	79	207	434.000
438.507	2.000	correct	0.427	review a-b	scene	test	object	scene	face	98	142	142	194	246	438.500
443.022	2.000	correct	0.305	review a-b	scene	test	object	scene	face	99	122	122	174	226	443.000
447.521	2.000	correct	0.422	review a-b	object	test	face	object	scene	100	60	60	60	112	447.500
452.019	2.000	incorrect	0.690	review a-b	scene	restudy	face	object	scene	101	61	61	61	113	452.000
456.518	2.000	correct	0.565	review a-b	object	test	scene	object	face	102	88	88	288	140	456.500
461.017	2.000	correct	0.316	review a-b	face	test	scene	face	object	103	42	42	266	42	461.000
465.515	2.000	correct	0.605	review a-b	object	restudy	face	object	scene	104	67	67	67	119	465.500
470.014	2.000	correct	0.313	review a-b	face	restudy	object	face	scene	105	11	11	159	11	470.000
474.513	2.000	correct	0.405	review a-b	object	restudy	scene	object	face	106	93	93	293	145	474.500
479.011	2.000	incorrect	0.560	review a-b	scene	restudy	face	object	scene	107	57	57	57	109	479.000
483.510	2.000	correct	0.294	review a-b	face	test	scene	face	object	108	44	44	268	44	483.500
488.008	2.000	incorrect	0.641	review a-b	object	test	object	face	scene	109	12	12	160	12	488.000
492.507	2.000	incorrect	0.564	review a-b	object	test	face	scene	object	110	102	102	78	206	492.500
497.022	2.000	correct	0.386	review a-b	scene	test	object	scene	face	111	136	136	188	240	497.000
501.521	2.000	correct	0.286	review a-b	face	restudy	object	face	scene	112	21	21	169	21	501.500
506.020	2.000	correct	0.309	review a-b	object	test	face	object	scene	113	70	70	70	122	506.000
510.518	2.000	correct	0.299	review a-b	face	restudy	object	face	scene	114	15	15	163	15	510.500
515.017	2.000	incorrect	0.350	review a-b	scene	test	object	face	scene	115	22	22	170	22	515.000
519.515	2.000	incorrect	0.369	review a-b	object	restudy	object	scene	face	116	127	127	179	231	519.500
524.014	2.000	incorrect	0.284	review a-b	scene	restudy	scene	object	face	117	75	75	275	127	524.000
528.513	2.000	incorrect	0.439	review a-b	face	test	scene	object	face	118	74	74	274	126	528.500
533.011	2.000	correct	0.275	review a-b	scene	restudy	object	scene	face	119	123	123	175	227	533.000
537.510	2.000	correct	0.386	review a-b	object	restudy	face	object	scene	120	69	69	69	121	537.500
542.009	2.000	correct	0.250	review a-b	scene	test	object	scene	face	121	140	140	192	244	542.000
546.507	2.000	incorrect	0.363	review a-b	scene	restudy	object	face	scene	122	1	1	149	1	546.500
551.023	2.000	incorrect	0.491	review a-b	face	restudy	face	object	scene	123	59	59	59	111	551.000
555.521	2.000	correct	0.632	review a-b	object	test	face	object	scene	124	52	52	52	104	555.500
560.020	2.000	incorrect	0.607	review a-b	scene	restudy	scene	face	object	125	35	35	259	35	560.000
564.518	2.000	incorrect	0.435	review a-b	face	test	face	object	scene	126	62	62	62	114	564.500
569.017	2.000	incorrect	0.294	review a-b	scene	test	face	object	scene	127	66	66	66	118	569.000
573.516	2.000	incorrect	0.657	review a-b	scene	test	scene	object	face	128	84	84	284	136	573.500
578.014	2.000	correct	0.257	review a-b	object	restudy	face	object	scene	129	71	71	71	123	578.000
582.513	2.000	incorrect	0.740	review a-b	scene	test	scene	object	face	130	90	90	290	142	582.500
587.012	2.000	incorrect	0.417	review a-b	object	test	object	face	scene	131	20	20	168	20	587.000
591.510	2.000	incorrect	0.278	review a-b	scene	test	face	object	scene	132	68	68	68	120	591.500
596.009	2.000	incorrect	0.311	review a-b	face	restudy	object	scene	face	133	141	141	193	245	596.000
600.507	2.000	incorrect	0.580	review a-b	object	test	scene	face	object	134	40	40	264	40	600.500
605.023	2.000	incorrect	0.634	review a-b	scene	restudy	object	face	scene	135	5	5	153	5	605.000
609.521	2.000	correct	0.296	review a-b	scene	restudy	face	scene	object	136	105	105	81	209	609.500
614.020	2.000	correct	0.354	review a-b	scene	test	face	scene	object	137	110	110	86	214	614.000
618.519	2.000	incorrect	0.439	review a-b	object	test	object	face	scene	138	4	4	152	4	618.500
623.017	2.000	correct	0.359	review a-b	face	test	scene	face	object	139	26	26	250	26	623.000
627.516	2.000	correct	0.459	review a-b	face	test	scene	face	object	140	48	48	272	48	627.500
632.014	2.000	correct	0.318	review a-b	face	restudy	scene	face	object	141	33	33	257	33	632.000
636.513	2.000	correct	0.388	review a-b	scene	restudy	face	scene	object	142	111	111	87	215	636.500
641.012	2.000	correct	0.628	review a-b	scene	restudy	object	scene	face	143	131	131	183	235	641.000
645.510	2.000	correct	0.566	review a-b	object	test	scene	object	face	144	78	78	278	130	645.500
2.008	2.000	incorrect	0.471	review a-b	object	restudy	object	face	scene	145	7	7	155	7	2.000
6.507	2.000	incorrect	0.667	review a-b	object	test	face	scene	object	146	114	114	90	218	6.500
11.022	2.000	correct	0.336	review a-b	scene	restudy	object	scene	face	147	141	141	193	245	11.000
15.521	2.000	correct	0.532	review a-b	face	test	scene	face	object	148	46	46	270	46	15.500
20.020	2.000	correct	0.420	review a-b	scene	restudy	object	scene	face	149	139	139	191	243	20.000
24.518	2.000	incorrect	0.387	review a-b	object	restudy	object	scene	face	150	129	129	181	233	24.500
29.017	2.000	incorrect	0.733	review a-b	scene	restudy	scene	face	object	151	47	47	271	47	29.000
33.515	2.000	incorrect	0.376	review a-b	object	test	face	scene	object	152	112	112	88	216	33.500
38.014	2.000	don't know	0.449	review a-b	don't know	restudy	scene	face	object	153	41	41	265	41	38.000
42.513	2.000	correct	0.396	review a-b	face	restudy	object	face	scene	154	1	1	149	1	42.500
47.011	2.000	incorrect	0.402	review a-b	object	restudy	scene	face	object	155	45	45	269	45	47.000
51.510	2.000	incorrect	0.490	review a-b	face	test	face	scene	object	156	100	100	76	204	51.500
56.009	2.000	correct	0.305	review a-b	object	restudy	face	object	scene	157	61	61	61	113	56.000
60.524	2.000	incorrect	0.346	review a-b	object	test	scene	face	object	158	30	30	254	30	60.500
65.022	2.000	incorrect	0.591	review a-b	scene	restudy	scene	object	face	159	87	87	287	139	65.000
69.521	2.000	correct	0.288	review a-b	face	restudy	object	face	scene	160	5	5	153	5	69.500
74.020	2.000	correct	0.226	review a-b	face	restudy	scene	face	object	161	29	29	253	29	74.000
78.518	2.000	correct	0.718	review a-b	scene	restudy	face	scene	object	162	101	101	77	205	78.500
83.017	2.000	incorrect	0.439	review a-b	face	restudy	face	scene	object	163	113	113	89	217	83.000
87.516	2.000	incorrect	0.333	review a-b	face	restudy	face	object	scene	164	49	49	49	101	87.500
92.014	2.000	incorrect	0.356	review a-b	scene	restudy	face	object	scene	165	59	59	59	111	92.000
96.513	2.000	correct	0.371	review a-b	scene	restudy	face	scene	object	166	103	103	79	207	96.500
101.011	2.000	correct	0.277	review a-b	face	test	object	face	scene	167	20	20	168	20	101.000
105.510	2.000	correct	0.390	review a-b	object	test	face	object	scene	168	72	72	72	124	105.500
110.009	2.000	correct	0.300	review a-b	scene	restudy	object	scene	face	169	127	127	179	231	110.000
114.507	2.000	incorrect	0.343	review a-b	scene	restudy	scene	face	object	170	31	31	255	31	114.500
119.023	2.000	correct	0.432	review a-b	scene	test	face	scene	object	171	108	108	84	212	119.000
123.521	2.000	correct	0.303	review a-b	object	restudy	scene	object	face	172	81	81	281	133	123.500
128.020	2.000	correct	0.377	review a-b	object	restudy	scene	object	face	173	79	79	279	131	128.000
132.518	2.000	correct	0.340	review a-b	object	test	scene	object	face	174	74	74	274	126	132.500
137.017	2.000	incorrect	0.539	review a-b	face	restudy	scene	object	face	175	75	75	275	127	137.000
141.516	2.000	incorrect	0.640	review a-b	face	restudy	face	object	scene	176	53	53	53	105	141.500
146.014	2.000	correct	0.328	review a-b	object	restudy	scene	object	face	177	77	77	277	129	146.000
150.513	2.000	incorrect	0.656	review a-b	object	test	object	scene	face	178	126	126	178	230	150.500
155.012	2.000	incorrect	0.394	review a-b	object	test	scene	face	object	179	40	40	264	40	155.000
159.510	2.000	incorrect	0.365	review a-b	scene	restudy	scene	object	face	180	89	89	289	141	159.500
164.026	2.000	correct	0.278	review a-b	object	test	scene	object	face	181	90	90	290	142	164.000
168.507	2.000	don't know	0.768	review a-b	don't know	restudy	scene	face	object	182	39	39	263	39	168.500
173.006	2.000	correct	0.343	review a-b	face	test	scene	face	object	183	32	32	256	32	173.000
177.521	2.000	incorrect	0.463	review a-b	object	restudy	object	scene	face	184	137	137	189	241	177.500
182.020	2.000	correct	0.387	review a-b	object	test	scene	object	face	185	84	84	284	136	182.000
186.519	2.000	incorrect	0.381	review a-b	scene	test	object	face	scene	186	6	6	154	6	186.500
191.017	2.000	incorrect	0.494	review a-b	scene	test	scene	object	face	187	80	80	280	132	191.000
195.516	2.000	incorrect	0.331	review a-b	object	restudy	scene	face	object	188	35	35	259	35	195.500
200.015	2.000	correct	0.300	review a-b	face	restudy	object	face	scene	189	13	13	161	13	200.000
204.513	2.000	correct	0.368	review a-b	object	test	face	object	scene	190	68	68	68	120	204.500
209.012	2.000	incorrect	0.399	review a-b	object	test	object	face	scene	191	10	10	158	10	209.000
213.510	2.000	incorrect	0.424	review a-b	object	test	scene	face	object	192	28	28	252	28	213.500
218.009	2.000	incorrect	0.498	review a-b	scene	test	object	face	scene	193	8	8	156	8	218.000
222.508	2.000	don't know	0.510	review a-b	don't know	restudy	scene	object	face	194	73	73	273	125	222.500
227.006	2.000	incorrect	0.496	review a-b	scene	test	object	face	scene	195	12	12	160	12	227.000
231.522	2.000	correct	0.266	review a-b	object	test	face	object	scene	196	66	66	66	118	231.500
236.020	2.000	correct	0.400	review a-b	object	test	face	object	scene	197	62	62	62	114	236.000
240.519	2.000	correct	0.271	review a-b	face	restudy	scene	face	object	198	43	43	267	43	240.500
245.017	2.000	correct	0.354	review a-b	object	test	scene	object	face	199	76	76	276	128	245.000
249.516	2.000	incorrect	0.475	review a-b	scene	restudy	face	object	scene	200	63	63	63	115	249.500
254.015	2.000	correct	0.274	review a-b	scene	test	face	scene	object	201	106	106	82	210	254.000
258.513	2.000	correct	0.370	review a-b	object	test	scene	object	face	202	82	82	282	134	258.500
263.012	2.000	correct	0.393	review a-b	scene	restudy	object	scene	face	203	125	125	177	229	263.000
267.511	2.000	incorrect	0.310	review a-b	face	restudy	object	scene	face	204	135	135	187	239	267.500
272.009	2.000	correct	0.408	review a-b	scene	test	face	scene	object	205	102	102	78	206	272.000
276.508	2.000	correct	0.359	review a-b	object	restudy	scene	object	face	206	91	91	291	143	276.500
281.006	2.000	correct	0.242	review a-b	face	test	object	face	scene	207	22	22	170	22	281.000
285.522	2.000	correct	0.284	review a-b	object	restudy	face	object	scene	208	57	57	57	109	285.500
290.020	2.000	correct	0.536	review a-b	face	test	object	face	scene	209	24	24	172	24	290.000
294.519	2.000	correct	0.517	review a-b	object	restudy	scene	object	face	210	85	85	285	137	294.500
299.018	2.000	correct	0.467	review a-b	face	test	object	face	scene	211	4	4	152	4	299.000
303.516	2.000	correct	0.013	review a-b	scene	restudy	face	scene	object	212	97	97	73	201	303.500
2.013	2.000	correct	0.257	review a-b	face	test	scene	face	object	213	40	40	264	40	2.000
6.512	2.000	incorrect	0.415	review a-b	scene	test	object	face	scene	214	10	10	158	10	6.500
11.010	2.000	incorrect	0.300	review a-b	face	restudy	object	scene	face	215	129	129	181	233	11.000
15.509	2.000	correct	0.274	review a-b	face	test	object	face	scene	216	6	6	154	6	15.500
20.008	2.000	correct	0.389	review a-b	scene	test	object	scene	face	217	126	126	178	230	20.000
24.506	2.000	incorrect	0.474	review a-b	face	test	face	scene	object	218	100	100	76	204	24.500
29.022	2.000	correct	0.634	review a-b	scene	restudy	object	scene	face	219	137	137	189	241	29.000
33.520	2.000	correct	0.273	review a-b	scene	test	face	scene	object	220	114	114	90	218	33.500
38.019	2.000	correct	0.330	review a-b	face	restudy	scene	face	object	221	45	45	269	45	38.000
42.518	2.000	correct	0.363	review a-b	object	restudy	scene	object	face	222	89	89	289	141	42.500
47.016	2.000	correct	0.302	review a-b	object	restudy	face	object	scene	223	63	63	63	115	47.000
51.515	2.000	incorrect	0.330	review a-b	scene	restudy	scene	face	object	224	31	31	255	31	51.500
56.013	2.000	incorrect	0.368	review a-b	object	test	object	face	scene	225	8	8	156	8	56.000
60.512	2.000	incorrect	0.327	review a-b	face	restudy	scene	object	face	226	73	73	273	125	60.500
65.011	2.000	correct	0.507	review a-b	object	restudy	scene	object	face	227	87	87	287	139	65.000
69.509	2.000	incorrect	0.368	review a-b	object	restudy	face	scene	object	228	113	113	89	217	69.500
74.008	2.000	incorrect	0.360	review a-b	scene	restudy	face	object	scene	229	53	53	53	105	74.000
78.506	2.000	correct	0.263	review a-b	face	restudy	scene	face	object	230	35	35	259	35	78.500
83.022	2.000	incorrect	0.272	review a-b	scene	test	scene	object	face	231	80	80	280	132	83.000
87.520	2.000	correct	0.451	review a-b	face	test	scene	face	object	232	28	28	252	28	87.500
92.019	2.000	incorrect	0.529	review a-b	scene	test	scene	face	object	233	30	30	254	30	92.000
96.518	2.000	correct	0.367	review a-b	face	test	object	face	scene	234	12	12	160	12	96.500
101.016	2.000	don't know	0.414	review a-b	don't know	restudy	scene	face	object	235	41	41	265	41	101.000
105.515	2.000	incorrect	0.353	review a-b	object	restudy	object	scene	face	236	135	135	187	239	105.500
110.013	2.000	correct	0.598	review a-b	face	restudy	object	face	scene	237	7	7	155	7	110.000
114.512	2.000	correct	0.349	review a-b	object	restudy	face	object	scene	238	59	59	59	111	114.500
119.011	2.000	correct	0.418	review a-b	object	restudy	scene	object	face	239	75	75	275	127	119.000
123.509	2.000	incorrect	0.710	review a-b	scene	restudy	scene	face	object	240	47	47	271	47	123.500
128.008	2.000	don't know	0.556	review a-b	don't know	restudy	scene	face	object	241	39	39	263	39	128.000
132.507	2.000	don't know	0.284	review a-b	don't know	test	face	scene	object	242	112	112	88	216	132.500
137.022	2.000	incorrect	0.333	review a-b	face	restudy	face	object	scene	243	49	49	49	101	137.000
2.016	2.000	incorrect	0.290	review a-b	scene	restudy	scene	face	object	244	41	41	265	41	2.000
6.515	2.000	correct	0.466	review a-b	face	restudy	scene	face	object	245	47	47	271	47	6.500
11.013	2.000	incorrect	0.412	review a-b	object	restudy	object	scene	face	246	135	135	187	239	11.000
15.512	2.000	incorrect	0.467	review a-b	scene	test	object	face	scene	247	8	8	156	8	15.500
20.010	2.000	incorrect	0.359	review a-b	object	test	face	scene	object	248	100	100	76	204	20.000
24.509	2.000	correct	0.355	review a-b	object	restudy	scene	object	face	249	73	73	273	125	24.500
29.008	2.000	correct	0.438	review a-b	object	restudy	face	object	scene	250	53	53	53	105	29.000
33.506	2.000	incorrect	0.311	review a-b	object	restudy	scene	face	object	251	39	39	263	39	33.500
38.022	2.000	correct	0.342	review a-b	face	test	object	face	scene	252	10	10	158	10	38.000
42.520	2.000	correct	0.307	review a-b	object	restudy	face	object	scene	253	49	49	49	101	42.500
47.019	2.000	correct	0.507	review a-b	scene	test	face	scene	object	254	112	112	88	216	47.000
51.517	2.000	correct	0.257	review a-b	face	test	scene	face	object	255	30	30	254	30	51.500
56.016	2.000	correct	0.324	review a-b	scene	restudy	object	scene	face	256	129	129	181	233	56.000
60.515	2.000	correct	0.354	review a-b	scene	restudy	face	scene	object	257	113	113	89	217	60.500
65.013	2.000	correct	0.275	review a-b	object	test	scene	object	face	258	80	80	280	132	65.000
69.512	2.000	correct	0.398	review a-b	face	restudy	scene	face	object	259	31	31	255	31	69.500
2.016	2.000	incorrect	0.368	review a-b	object	test	face	scene	object	260	100	100	76	204	2.000
6.514	2.000	incorrect	0.484	review a-b	object	test	object	face	scene	261	8	8	156	8	6.500
11.013	2.000	correct	0.383	review a-b	scene	restudy	object	scene	face	262	135	135	187	239	11.000
15.512	2.000	incorrect	0.486	review a-b	object	restudy	scene	face	object	263	39	39	263	39	15.500
20.010	2.000	correct	0.316	review a-b	face	restudy	scene	face	object	264	41	41	265	41	20.000
2.016	2.000	correct	0.300	review a-b	scene	test	face	scene	object	265	100	100	76	204	2.000
6.515	2.000	correct	0.331	review a-b	face	test	object	face	scene	266	8	8	156	8	6.500
11.013	2.000	incorrect	0.414	review a-b	scene	restudy	scene	face	object	267	39	39	263	39	11.000
2.016	2.000	correct	0.609	review a-b	face	restudy	scene	face	object	268	39	39	263	39	2.000
