onset	duration	trial_type	response_time	task_type	update_cond	cate_c	cate_b	cate_o	response_type	response	trial_id	run_id	word_id	img_id	stim_c	stim_b	design_onset	grate_orientation
2.015	3.000	forget	0.777	retrieval	restudy	scene	object	face	competitor	object	1	1	78	126	278	130	2.0	n/a
7.050	2.650	correct	2.650	grate	n/a	n/a	n/a	n/a	n/a	n/a	1	1	n/a	n/a	n/a	n/a	n/a	right
10.217	1.012	correct	1.012	grate	n/a	n/a	n/a	n/a	n/a	n/a	1	1	n/a	n/a	n/a	n/a	n/a	left
11.749	0.688	correct	0.688	grate	n/a	n/a	n/a	n/a	n/a	n/a	1	1	n/a	n/a	n/a	n/a	n/a	right
12.949	0.100	incorrect	0.100	grate	n/a	n/a	n/a	n/a	n/a	n/a	1	1	n/a	n/a	n/a	n/a	n/a	right
14.014	3.000	remember	0.394	retrieval	restudy	face	scene	object	target	face	2	1	100	28	76	204	14.0	n/a
19.048	0.756	correct	0.756	grate	n/a	n/a	n/a	n/a	n/a	n/a	2	1	n/a	n/a	n/a	n/a	n/a	left
20.315	0.673	correct	0.673	grate	n/a	n/a	n/a	n/a	n/a	n/a	2	1	n/a	n/a	n/a	n/a	n/a	left
21.498	0.667	correct	0.667	grate	n/a	n/a	n/a	n/a	n/a	n/a	2	1	n/a	n/a	n/a	n/a	n/a	left
22.681	0.635	correct	0.635	grate	n/a	n/a	n/a	n/a	n/a	n/a	2	1	n/a	n/a	n/a	n/a	n/a	left
23.831	0.683	incorrect	0.683	grate	n/a	n/a	n/a	n/a	n/a	n/a	2	1	n/a	n/a	n/a	n/a	n/a	right
26.013	3.000	forget	0.723	retrieval	restudy	scene	face	object	other	object	3	1	28	100	252	28	26.0	n/a
31.047	0.765	correct	0.765	grate	n/a	n/a	n/a	n/a	n/a	n/a	3	1	n/a	n/a	n/a	n/a	n/a	left
32.330	1.018	correct	1.018	grate	n/a	n/a	n/a	n/a	n/a	n/a	3	1	n/a	n/a	n/a	n/a	n/a	right
33.863	0.758	correct	0.758	grate	n/a	n/a	n/a	n/a	n/a	n/a	3	1	n/a	n/a	n/a	n/a	n/a	right
35.130	0.650	correct	0.650	grate	n/a	n/a	n/a	n/a	n/a	n/a	3	1	n/a	n/a	n/a	n/a	n/a	right
36.296	0.217	incorrect	0.217	grate	n/a	n/a	n/a	n/a	n/a	n/a	3	1	n/a	n/a	n/a	n/a	n/a	right
38.012	3.000	no response	n/a	retrieval	retprac	object	scene	face	no response	no response	4	1	123	75	175	227	38.0	n/a
43.046	0.975	correct	0.975	grate	n/a	n/a	n/a	n/a	n/a	n/a	4	1	n/a	n/a	n/a	n/a	n/a	left
44.529	0.923	correct	0.923	grate	n/a	n/a	n/a	n/a	n/a	n/a	4	1	n/a	n/a	n/a	n/a	n/a	right
45.962	0.609	correct	0.609	grate	n/a	n/a	n/a	n/a	n/a	n/a	4	1	n/a	n/a	n/a	n/a	n/a	right
47.095	0.604	correct	0.604	grate	n/a	n/a	n/a	n/a	n/a	n/a	4	1	n/a	n/a	n/a	n/a	n/a	left
48.212	0.300	incorrect	0.300	grate	n/a	n/a	n/a	n/a	n/a	n/a	4	1	n/a	n/a	n/a	n/a	n/a	left
50.011	3.000	remember	0.484	retrieval	restudy	scene	face	object	target	scene	5	1	26	98	250	26	50.0	n/a
55.045	0.918	correct	0.918	grate	n/a	n/a	n/a	n/a	n/a	n/a	5	1	n/a	n/a	n/a	n/a	n/a	left
56.478	0.870	correct	0.870	grate	n/a	n/a	n/a	n/a	n/a	n/a	5	1	n/a	n/a	n/a	n/a	n/a	right
57.861	0.710	correct	0.710	grate	n/a	n/a	n/a	n/a	n/a	n/a	5	1	n/a	n/a	n/a	n/a	n/a	left
59.094	0.725	correct	0.725	grate	n/a	n/a	n/a	n/a	n/a	n/a	5	1	n/a	n/a	n/a	n/a	n/a	right
60.327	0.183	incorrect	0.183	grate	n/a	n/a	n/a	n/a	n/a	n/a	5	1	n/a	n/a	n/a	n/a	n/a	left
62.009	3.000	remember	0.613	retrieval	retprac	face	object	scene	target	face	6	1	51	3	51	103	62.0	n/a
67.043	0.727	correct	0.727	grate	n/a	n/a	n/a	n/a	n/a	n/a	6	1	n/a	n/a	n/a	n/a	n/a	left
68.293	0.629	correct	0.629	grate	n/a	n/a	n/a	n/a	n/a	n/a	6	1	n/a	n/a	n/a	n/a	n/a	left
69.443	0.712	correct	0.712	grate	n/a	n/a	n/a	n/a	n/a	n/a	6	1	n/a	n/a	n/a	n/a	n/a	right
70.676	0.639	correct	0.639	grate	n/a	n/a	n/a	n/a	n/a	n/a	6	1	n/a	n/a	n/a	n/a	n/a	right
71.826	0.683	incorrect	0.683	grate	n/a	n/a	n/a	n/a	n/a	n/a	6	1	n/a	n/a	n/a	n/a	n/a	left
74.008	3.000	no response	n/a	retrieval	retprac	object	scene	face	no response	no response	7	1	125	77	177	229	74.0	n/a
79.042	1.288	correct	1.288	grate	n/a	n/a	n/a	n/a	n/a	n/a	7	1	n/a	n/a	n/a	n/a	n/a	left
80.842	0.792	correct	0.792	grate	n/a	n/a	n/a	n/a	n/a	n/a	7	1	n/a	n/a	n/a	n/a	n/a	right
82.142	0.644	correct	0.644	grate	n/a	n/a	n/a	n/a	n/a	n/a	7	1	n/a	n/a	n/a	n/a	n/a	right
83.308	0.647	correct	0.647	grate	n/a	n/a	n/a	n/a	n/a	n/a	7	1	n/a	n/a	n/a	n/a	n/a	right
84.475	0.033	incorrect	0.033	grate	n/a	n/a	n/a	n/a	n/a	n/a	7	1	n/a	n/a	n/a	n/a	n/a	left
86.007	3.000	remember	0.270	retrieval	retprac	scene	face	object	target	scene	8	1	25	97	249	25	86.0	n/a
91.041	0.760	correct	0.760	grate	n/a	n/a	n/a	n/a	n/a	n/a	8	1	n/a	n/a	n/a	n/a	n/a	right
92.324	0.606	correct	0.606	grate	n/a	n/a	n/a	n/a	n/a	n/a	8	1	n/a	n/a	n/a	n/a	n/a	right
93.441	0.561	correct	0.561	grate	n/a	n/a	n/a	n/a	n/a	n/a	8	1	n/a	n/a	n/a	n/a	n/a	right
94.524	0.502	correct	0.502	grate	n/a	n/a	n/a	n/a	n/a	n/a	8	1	n/a	n/a	n/a	n/a	n/a	right
95.540	0.605	correct	0.605	grate	n/a	n/a	n/a	n/a	n/a	n/a	8	1	n/a	n/a	n/a	n/a	n/a	left
96.657	0.100	incorrect	0.100	grate	n/a	n/a	n/a	n/a	n/a	n/a	8	1	n/a	n/a	n/a	n/a	n/a	right
98.006	3.000	remember	0.751	retrieval	restudy	face	scene	object	target	face	9	1	102	30	78	206	98.0	n/a
103.040	0.697	correct	0.697	grate	n/a	n/a	n/a	n/a	n/a	n/a	9	1	n/a	n/a	n/a	n/a	n/a	right
104.256	0.561	correct	0.561	grate	n/a	n/a	n/a	n/a	n/a	n/a	9	1	n/a	n/a	n/a	n/a	n/a	right
105.339	0.510	correct	0.510	grate	n/a	n/a	n/a	n/a	n/a	n/a	9	1	n/a	n/a	n/a	n/a	n/a	right
106.373	0.588	correct	0.588	grate	n/a	n/a	n/a	n/a	n/a	n/a	9	1	n/a	n/a	n/a	n/a	n/a	left
107.472	0.705	correct	0.705	grate	n/a	n/a	n/a	n/a	n/a	n/a	9	1	n/a	n/a	n/a	n/a	n/a	right
108.689	0.100	incorrect	0.100	grate	n/a	n/a	n/a	n/a	n/a	n/a	9	1	n/a	n/a	n/a	n/a	n/a	left
110.021	3.000	forget	0.903	retrieval	retprac	object	scene	face	other	face	10	1	121	73	173	225	110.0	n/a
115.055	0.682	correct	0.682	grate	n/a	n/a	n/a	n/a	n/a	n/a	10	1	n/a	n/a	n/a	n/a	n/a	right
116.255	0.578	correct	0.578	grate	n/a	n/a	n/a	n/a	n/a	n/a	10	1	n/a	n/a	n/a	n/a	n/a	left
117.355	0.574	correct	0.574	grate	n/a	n/a	n/a	n/a	n/a	n/a	10	1	n/a	n/a	n/a	n/a	n/a	left
118.438	0.651	correct	0.651	grate	n/a	n/a	n/a	n/a	n/a	n/a	10	1	n/a	n/a	n/a	n/a	n/a	right
119.605	0.644	correct	0.644	grate	n/a	n/a	n/a	n/a	n/a	n/a	10	1	n/a	n/a	n/a	n/a	n/a	left
120.771	0.100	incorrect	0.100	grate	n/a	n/a	n/a	n/a	n/a	n/a	10	1	n/a	n/a	n/a	n/a	n/a	right
122.020	3.000	forget	0.512	retrieval	restudy	scene	object	face	other	face	11	1	80	128	280	132	122.0	n/a
127.054	0.730	correct	0.730	grate	n/a	n/a	n/a	n/a	n/a	n/a	11	1	n/a	n/a	n/a	n/a	n/a	right
128.304	0.536	correct	0.536	grate	n/a	n/a	n/a	n/a	n/a	n/a	11	1	n/a	n/a	n/a	n/a	n/a	right
129.354	0.470	correct	0.470	grate	n/a	n/a	n/a	n/a	n/a	n/a	11	1	n/a	n/a	n/a	n/a	n/a	left
130.337	0.511	correct	0.511	grate	n/a	n/a	n/a	n/a	n/a	n/a	11	1	n/a	n/a	n/a	n/a	n/a	left
131.370	0.678	correct	0.678	grate	n/a	n/a	n/a	n/a	n/a	n/a	11	1	n/a	n/a	n/a	n/a	n/a	right
132.570	0.100	incorrect	0.100	grate	n/a	n/a	n/a	n/a	n/a	n/a	11	1	n/a	n/a	n/a	n/a	n/a	left
134.019	3.000	forget	0.489	retrieval	restudy	object	face	scene	competitor	face	12	1	6	54	154	6	134.0	n/a
139.053	0.603	correct	0.603	grate	n/a	n/a	n/a	n/a	n/a	n/a	12	1	n/a	n/a	n/a	n/a	n/a	right
140.169	0.559	correct	0.559	grate	n/a	n/a	n/a	n/a	n/a	n/a	12	1	n/a	n/a	n/a	n/a	n/a	left
141.236	0.492	correct	0.492	grate	n/a	n/a	n/a	n/a	n/a	n/a	12	1	n/a	n/a	n/a	n/a	n/a	right
142.236	0.620	correct	0.620	grate	n/a	n/a	n/a	n/a	n/a	n/a	12	1	n/a	n/a	n/a	n/a	n/a	right
143.369	0.542	correct	0.542	grate	n/a	n/a	n/a	n/a	n/a	n/a	12	1	n/a	n/a	n/a	n/a	n/a	left
144.435	0.083	incorrect	0.083	grate	n/a	n/a	n/a	n/a	n/a	n/a	12	1	n/a	n/a	n/a	n/a	n/a	right
146.017	3.000	forget	0.505	retrieval	retprac	object	face	scene	other	scene	13	1	7	55	155	7	146.0	n/a
151.051	0.948	correct	0.948	grate	n/a	n/a	n/a	n/a	n/a	n/a	13	1	n/a	n/a	n/a	n/a	n/a	right
152.518	1.089	correct	1.089	grate	n/a	n/a	n/a	n/a	n/a	n/a	13	1	n/a	n/a	n/a	n/a	n/a	left
154.118	0.785	correct	0.785	grate	n/a	n/a	n/a	n/a	n/a	n/a	13	1	n/a	n/a	n/a	n/a	n/a	right
155.417	0.838	correct	0.838	grate	n/a	n/a	n/a	n/a	n/a	n/a	13	1	n/a	n/a	n/a	n/a	n/a	right
156.767	0.100	incorrect	0.100	grate	n/a	n/a	n/a	n/a	n/a	n/a	13	1	n/a	n/a	n/a	n/a	n/a	left
158.016	3.000	remember	0.682	retrieval	retprac	object	face	scene	target	object	14	1	5	53	153	5	158.0	n/a
163.050	0.852	correct	0.852	grate	n/a	n/a	n/a	n/a	n/a	n/a	14	1	n/a	n/a	n/a	n/a	n/a	right
164.417	0.654	correct	0.654	grate	n/a	n/a	n/a	n/a	n/a	n/a	14	1	n/a	n/a	n/a	n/a	n/a	right
165.583	0.807	correct	0.807	grate	n/a	n/a	n/a	n/a	n/a	n/a	14	1	n/a	n/a	n/a	n/a	n/a	left
166.900	0.796	correct	0.796	grate	n/a	n/a	n/a	n/a	n/a	n/a	14	1	n/a	n/a	n/a	n/a	n/a	right
168.216	0.300	incorrect	0.300	grate	n/a	n/a	n/a	n/a	n/a	n/a	14	1	n/a	n/a	n/a	n/a	n/a	left
170.015	3.000	forget	0.419	retrieval	retprac	scene	object	face	other	face	15	1	79	127	279	131	170.0	n/a
175.049	0.637	correct	0.637	grate	n/a	n/a	n/a	n/a	n/a	n/a	15	1	n/a	n/a	n/a	n/a	n/a	left
176.199	0.543	correct	0.543	grate	n/a	n/a	n/a	n/a	n/a	n/a	15	1	n/a	n/a	n/a	n/a	n/a	right
177.265	0.589	correct	0.589	grate	n/a	n/a	n/a	n/a	n/a	n/a	15	1	n/a	n/a	n/a	n/a	n/a	right
178.365	0.641	correct	0.641	grate	n/a	n/a	n/a	n/a	n/a	n/a	15	1	n/a	n/a	n/a	n/a	n/a	left
179.515	0.595	correct	0.595	grate	n/a	n/a	n/a	n/a	n/a	n/a	15	1	n/a	n/a	n/a	n/a	n/a	left
180.632	0.100	incorrect	0.100	grate	n/a	n/a	n/a	n/a	n/a	n/a	15	1	n/a	n/a	n/a	n/a	n/a	right
182.014	3.000	forget	0.588	retrieval	retprac	face	scene	object	competitor	scene	16	1	101	29	77	205	182.0	n/a
187.048	0.630	correct	0.630	grate	n/a	n/a	n/a	n/a	n/a	n/a	16	1	n/a	n/a	n/a	n/a	n/a	right
188.197	0.888	correct	0.888	grate	n/a	n/a	n/a	n/a	n/a	n/a	16	1	n/a	n/a	n/a	n/a	n/a	right
189.597	0.728	correct	0.728	grate	n/a	n/a	n/a	n/a	n/a	n/a	16	1	n/a	n/a	n/a	n/a	n/a	left
190.847	0.702	correct	0.702	grate	n/a	n/a	n/a	n/a	n/a	n/a	16	1	n/a	n/a	n/a	n/a	n/a	left
192.064	0.450	incorrect	0.450	grate	n/a	n/a	n/a	n/a	n/a	n/a	16	1	n/a	n/a	n/a	n/a	n/a	right
194.013	3.000	remember	0.900	retrieval	restudy	object	scene	face	target	object	17	1	128	80	180	232	194.0	n/a
199.047	0.742	correct	0.742	grate	n/a	n/a	n/a	n/a	n/a	n/a	17	1	n/a	n/a	n/a	n/a	n/a	left
200.296	1.117	correct	1.117	grate	n/a	n/a	n/a	n/a	n/a	n/a	17	1	n/a	n/a	n/a	n/a	n/a	left
201.930	1.211	correct	1.211	grate	n/a	n/a	n/a	n/a	n/a	n/a	17	1	n/a	n/a	n/a	n/a	n/a	left
203.663	0.850	incorrect	0.850	grate	n/a	n/a	n/a	n/a	n/a	n/a	17	1	n/a	n/a	n/a	n/a	n/a	left
206.011	3.000	no response	n/a	retrieval	retprac	scene	object	face	no response	no response	18	1	73	121	273	125	206.0	n/a
211.045	0.951	incorrect	0.951	grate	n/a	n/a	n/a	n/a	n/a	n/a	18	1	n/a	n/a	n/a	n/a	n/a	right
212.512	0.621	incorrect	0.621	grate	n/a	n/a	n/a	n/a	n/a	n/a	18	1	n/a	n/a	n/a	n/a	n/a	right
213.645	1.024	correct	1.024	grate	n/a	n/a	n/a	n/a	n/a	n/a	18	1	n/a	n/a	n/a	n/a	n/a	left
215.178	0.802	incorrect	0.802	grate	n/a	n/a	n/a	n/a	n/a	n/a	18	1	n/a	n/a	n/a	n/a	n/a	left
216.495	0.017	incorrect	0.017	grate	n/a	n/a	n/a	n/a	n/a	n/a	18	1	n/a	n/a	n/a	n/a	n/a	left
218.010	3.000	forget	0.542	retrieval	retprac	scene	object	face	other	face	19	1	77	125	277	129	218.0	n/a
223.044	1.312	correct	1.312	grate	n/a	n/a	n/a	n/a	n/a	n/a	19	1	n/a	n/a	n/a	n/a	n/a	right
224.877	0.727	correct	0.727	grate	n/a	n/a	n/a	n/a	n/a	n/a	19	1	n/a	n/a	n/a	n/a	n/a	left
226.127	1.005	correct	1.005	grate	n/a	n/a	n/a	n/a	n/a	n/a	19	1	n/a	n/a	n/a	n/a	n/a	right
227.644	0.867	incorrect	0.867	grate	n/a	n/a	n/a	n/a	n/a	n/a	19	1	n/a	n/a	n/a	n/a	n/a	right
230.009	3.000	remember	0.662	retrieval	retprac	face	object	scene	target	face	20	1	49	1	49	101	230.0	n/a
235.043	0.905	correct	0.905	grate	n/a	n/a	n/a	n/a	n/a	n/a	20	1	n/a	n/a	n/a	n/a	n/a	left
236.459	0.856	correct	0.856	grate	n/a	n/a	n/a	n/a	n/a	n/a	20	1	n/a	n/a	n/a	n/a	n/a	left
237.826	0.626	correct	0.626	grate	n/a	n/a	n/a	n/a	n/a	n/a	20	1	n/a	n/a	n/a	n/a	n/a	left
238.959	1.550	incorrect	1.550	grate	n/a	n/a	n/a	n/a	n/a	n/a	20	1	n/a	n/a	n/a	n/a	n/a	right
242.008	3.000	forget	0.343	retrieval	restudy	object	face	scene	competitor	face	21	1	4	52	152	4	242.0	n/a
247.042	0.769	correct	0.769	grate	n/a	n/a	n/a	n/a	n/a	n/a	21	1	n/a	n/a	n/a	n/a	n/a	right
248.325	0.518	correct	0.518	grate	n/a	n/a	n/a	n/a	n/a	n/a	21	1	n/a	n/a	n/a	n/a	n/a	left
249.358	0.557	correct	0.557	grate	n/a	n/a	n/a	n/a	n/a	n/a	21	1	n/a	n/a	n/a	n/a	n/a	left
250.424	0.570	correct	0.570	grate	n/a	n/a	n/a	n/a	n/a	n/a	21	1	n/a	n/a	n/a	n/a	n/a	left
251.508	0.544	correct	0.544	grate	n/a	n/a	n/a	n/a	n/a	n/a	21	1	n/a	n/a	n/a	n/a	n/a	left
252.574	0.100	incorrect	0.100	grate	n/a	n/a	n/a	n/a	n/a	n/a	21	1	n/a	n/a	n/a	n/a	n/a	right
254.006	3.000	no response	n/a	retrieval	restudy	face	object	scene	no response	no response	22	1	54	6	54	106	254.0	n/a
259.040	0.706	correct	0.706	grate	n/a	n/a	n/a	n/a	n/a	n/a	22	1	n/a	n/a	n/a	n/a	n/a	left
260.257	0.561	correct	0.561	grate	n/a	n/a	n/a	n/a	n/a	n/a	22	1	n/a	n/a	n/a	n/a	n/a	left
261.340	0.863	correct	0.863	grate	n/a	n/a	n/a	n/a	n/a	n/a	22	1	n/a	n/a	n/a	n/a	n/a	right
262.723	1.063	correct	1.063	grate	n/a	n/a	n/a	n/a	n/a	n/a	22	1	n/a	n/a	n/a	n/a	n/a	right
264.306	0.200	incorrect	0.200	grate	n/a	n/a	n/a	n/a	n/a	n/a	22	1	n/a	n/a	n/a	n/a	n/a	right
266.022	3.000	forget	0.664	retrieval	retprac	face	object	scene	competitor	object	23	1	53	5	53	105	266.0	n/a
271.056	1.642	correct	1.642	grate	n/a	n/a	n/a	n/a	n/a	n/a	23	1	n/a	n/a	n/a	n/a	n/a	right
273.206	0.916	correct	0.916	grate	n/a	n/a	n/a	n/a	n/a	n/a	23	1	n/a	n/a	n/a	n/a	n/a	right
274.639	0.707	correct	0.707	grate	n/a	n/a	n/a	n/a	n/a	n/a	23	1	n/a	n/a	n/a	n/a	n/a	left
275.855	0.667	incorrect	0.667	grate	n/a	n/a	n/a	n/a	n/a	n/a	23	1	n/a	n/a	n/a	n/a	n/a	right
278.021	3.000	no response	n/a	retrieval	restudy	face	scene	object	no response	no response	24	1	98	26	74	202	278.0	n/a
283.055	0.016	correct	0.016	grate	n/a	n/a	n/a	n/a	n/a	n/a	24	1	n/a	n/a	n/a	n/a	n/a	right
283.588	0.622	correct	0.622	grate	n/a	n/a	n/a	n/a	n/a	n/a	24	1	n/a	n/a	n/a	n/a	n/a	left
284.721	0.673	correct	0.673	grate	n/a	n/a	n/a	n/a	n/a	n/a	24	1	n/a	n/a	n/a	n/a	n/a	left
285.904	0.825	correct	0.825	grate	n/a	n/a	n/a	n/a	n/a	n/a	24	1	n/a	n/a	n/a	n/a	n/a	right
287.237	0.532	correct	0.532	grate	n/a	n/a	n/a	n/a	n/a	n/a	24	1	n/a	n/a	n/a	n/a	n/a	left
288.287	0.233	incorrect	0.233	grate	n/a	n/a	n/a	n/a	n/a	n/a	24	1	n/a	n/a	n/a	n/a	n/a	right
290.020	3.000	remember	0.330	retrieval	restudy	object	scene	face	target	object	25	1	122	74	174	226	290.0	n/a
295.053	1.044	correct	1.044	grate	n/a	n/a	n/a	n/a	n/a	n/a	25	1	n/a	n/a	n/a	n/a	n/a	right
296.620	0.637	correct	0.637	grate	n/a	n/a	n/a	n/a	n/a	n/a	25	1	n/a	n/a	n/a	n/a	n/a	left
297.770	0.879	correct	0.879	grate	n/a	n/a	n/a	n/a	n/a	n/a	25	1	n/a	n/a	n/a	n/a	n/a	right
299.170	0.631	correct	0.631	grate	n/a	n/a	n/a	n/a	n/a	n/a	25	1	n/a	n/a	n/a	n/a	n/a	left
300.319	0.200	incorrect	0.200	grate	n/a	n/a	n/a	n/a	n/a	n/a	25	1	n/a	n/a	n/a	n/a	n/a	left
302.018	3.000	remember	0.331	retrieval	retprac	face	scene	object	target	face	26	1	103	31	79	207	302.0	n/a
307.052	1.372	correct	1.372	grate	n/a	n/a	n/a	n/a	n/a	n/a	26	1	n/a	n/a	n/a	n/a	n/a	left
308.935	0.657	correct	0.657	grate	n/a	n/a	n/a	n/a	n/a	n/a	26	1	n/a	n/a	n/a	n/a	n/a	right
310.102	0.922	correct	0.922	grate	n/a	n/a	n/a	n/a	n/a	n/a	26	1	n/a	n/a	n/a	n/a	n/a	right
311.535	0.601	correct	0.601	grate	n/a	n/a	n/a	n/a	n/a	n/a	26	1	n/a	n/a	n/a	n/a	n/a	right
312.651	0.100	incorrect	0.100	grate	n/a	n/a	n/a	n/a	n/a	n/a	26	1	n/a	n/a	n/a	n/a	n/a	right
314.017	3.000	forget	0.659	retrieval	restudy	face	object	scene	competitor	object	27	1	52	4	52	104	314.0	n/a
319.051	0.709	correct	0.709	grate	n/a	n/a	n/a	n/a	n/a	n/a	27	1	n/a	n/a	n/a	n/a	n/a	left
320.267	0.613	correct	0.613	grate	n/a	n/a	n/a	n/a	n/a	n/a	27	1	n/a	n/a	n/a	n/a	n/a	left
321.401	0.583	correct	0.583	grate	n/a	n/a	n/a	n/a	n/a	n/a	27	1	n/a	n/a	n/a	n/a	n/a	left
322.501	0.675	correct	0.675	grate	n/a	n/a	n/a	n/a	n/a	n/a	27	1	n/a	n/a	n/a	n/a	n/a	right
323.684	0.764	correct	0.764	grate	n/a	n/a	n/a	n/a	n/a	n/a	27	1	n/a	n/a	n/a	n/a	n/a	left
324.967	0.100	incorrect	0.100	grate	n/a	n/a	n/a	n/a	n/a	n/a	27	1	n/a	n/a	n/a	n/a	n/a	left
326.016	3.000	forget	0.292	retrieval	retprac	object	scene	face	competitor	scene	28	1	127	79	179	231	326.0	n/a
331.050	0.791	correct	0.791	grate	n/a	n/a	n/a	n/a	n/a	n/a	28	1	n/a	n/a	n/a	n/a	n/a	left
332.350	0.506	correct	0.506	grate	n/a	n/a	n/a	n/a	n/a	n/a	28	1	n/a	n/a	n/a	n/a	n/a	left
333.366	0.593	correct	0.593	grate	n/a	n/a	n/a	n/a	n/a	n/a	28	1	n/a	n/a	n/a	n/a	n/a	left
334.483	0.597	correct	0.597	grate	n/a	n/a	n/a	n/a	n/a	n/a	28	1	n/a	n/a	n/a	n/a	n/a	left
335.599	0.584	correct	0.584	grate	n/a	n/a	n/a	n/a	n/a	n/a	28	1	n/a	n/a	n/a	n/a	n/a	left
336.699	0.100	incorrect	0.100	grate	n/a	n/a	n/a	n/a	n/a	n/a	28	1	n/a	n/a	n/a	n/a	n/a	left
338.015	3.000	forget	0.420	retrieval	restudy	object	face	scene	competitor	face	29	1	8	56	156	8	338.0	n/a
343.049	0.671	correct	0.671	grate	n/a	n/a	n/a	n/a	n/a	n/a	29	1	n/a	n/a	n/a	n/a	n/a	left
344.248	0.583	correct	0.583	grate	n/a	n/a	n/a	n/a	n/a	n/a	29	1	n/a	n/a	n/a	n/a	n/a	left
345.348	0.723	correct	0.723	grate	n/a	n/a	n/a	n/a	n/a	n/a	29	1	n/a	n/a	n/a	n/a	n/a	right
346.581	0.610	correct	0.610	grate	n/a	n/a	n/a	n/a	n/a	n/a	29	1	n/a	n/a	n/a	n/a	n/a	right
347.715	0.588	correct	0.588	grate	n/a	n/a	n/a	n/a	n/a	n/a	29	1	n/a	n/a	n/a	n/a	n/a	left
348.815	0.100	incorrect	0.100	grate	n/a	n/a	n/a	n/a	n/a	n/a	29	1	n/a	n/a	n/a	n/a	n/a	left
350.013	3.000	remember	0.597	retrieval	restudy	scene	object	face	target	scene	30	1	74	122	274	126	350.0	n/a
355.047	1.031	correct	1.031	grate	n/a	n/a	n/a	n/a	n/a	n/a	30	1	n/a	n/a	n/a	n/a	n/a	left
356.597	0.601	correct	0.601	grate	n/a	n/a	n/a	n/a	n/a	n/a	30	1	n/a	n/a	n/a	n/a	n/a	right
357.714	0.669	correct	0.669	grate	n/a	n/a	n/a	n/a	n/a	n/a	30	1	n/a	n/a	n/a	n/a	n/a	left
358.897	0.702	correct	0.702	grate	n/a	n/a	n/a	n/a	n/a	n/a	30	1	n/a	n/a	n/a	n/a	n/a	right
360.113	0.400	incorrect	0.400	grate	n/a	n/a	n/a	n/a	n/a	n/a	30	1	n/a	n/a	n/a	n/a	n/a	right
362.012	3.000	remember	0.374	retrieval	restudy	scene	face	object	target	scene	31	1	32	104	256	32	362.0	n/a
367.046	2.560	correct	2.560	grate	n/a	n/a	n/a	n/a	n/a	n/a	31	1	n/a	n/a	n/a	n/a	n/a	right
370.129	0.549	correct	0.549	grate	n/a	n/a	n/a	n/a	n/a	n/a	31	1	n/a	n/a	n/a	n/a	n/a	right
371.196	0.714	correct	0.714	grate	n/a	n/a	n/a	n/a	n/a	n/a	31	1	n/a	n/a	n/a	n/a	n/a	left
372.429	0.083	incorrect	0.083	grate	n/a	n/a	n/a	n/a	n/a	n/a	31	1	n/a	n/a	n/a	n/a	n/a	left
374.011	3.000	forget	0.382	retrieval	restudy	object	scene	face	other	face	32	1	124	76	176	228	374.0	n/a
379.045	0.793	correct	0.793	grate	n/a	n/a	n/a	n/a	n/a	n/a	32	1	n/a	n/a	n/a	n/a	n/a	left
380.361	0.964	correct	0.964	grate	n/a	n/a	n/a	n/a	n/a	n/a	32	1	n/a	n/a	n/a	n/a	n/a	right
381.845	0.714	correct	0.714	grate	n/a	n/a	n/a	n/a	n/a	n/a	32	1	n/a	n/a	n/a	n/a	n/a	left
383.078	0.744	correct	0.744	grate	n/a	n/a	n/a	n/a	n/a	n/a	32	1	n/a	n/a	n/a	n/a	n/a	left
384.344	0.167	incorrect	0.167	grate	n/a	n/a	n/a	n/a	n/a	n/a	32	1	n/a	n/a	n/a	n/a	n/a	right
386.010	3.000	forget	0.655	retrieval	retprac	scene	face	object	competitor	face	33	1	29	101	253	29	386.0	n/a
391.044	1.049	correct	1.049	grate	n/a	n/a	n/a	n/a	n/a	n/a	33	1	n/a	n/a	n/a	n/a	n/a	right
392.610	0.532	correct	0.532	grate	n/a	n/a	n/a	n/a	n/a	n/a	33	1	n/a	n/a	n/a	n/a	n/a	right
393.660	0.617	correct	0.617	grate	n/a	n/a	n/a	n/a	n/a	n/a	33	1	n/a	n/a	n/a	n/a	n/a	left
394.793	0.644	correct	0.644	grate	n/a	n/a	n/a	n/a	n/a	n/a	33	1	n/a	n/a	n/a	n/a	n/a	right
395.960	0.550	incorrect	0.550	grate	n/a	n/a	n/a	n/a	n/a	n/a	33	1	n/a	n/a	n/a	n/a	n/a	left
398.008	3.000	forget	0.600	retrieval	retprac	face	scene	object	other	object	34	1	97	25	73	201	398.0	n/a
403.043	0.723	correct	0.723	grate	n/a	n/a	n/a	n/a	n/a	n/a	34	1	n/a	n/a	n/a	n/a	n/a	left
404.276	0.977	correct	0.977	grate	n/a	n/a	n/a	n/a	n/a	n/a	34	1	n/a	n/a	n/a	n/a	n/a	right
405.775	0.541	correct	0.541	grate	n/a	n/a	n/a	n/a	n/a	n/a	34	1	n/a	n/a	n/a	n/a	n/a	left
406.825	0.731	correct	0.731	grate	n/a	n/a	n/a	n/a	n/a	n/a	34	1	n/a	n/a	n/a	n/a	n/a	right
408.075	0.433	incorrect	0.433	grate	n/a	n/a	n/a	n/a	n/a	n/a	34	1	n/a	n/a	n/a	n/a	n/a	left
410.007	3.000	forget	0.472	retrieval	restudy	object	face	scene	competitor	face	35	1	2	50	150	2	410.0	n/a
415.042	1.363	correct	1.363	grate	n/a	n/a	n/a	n/a	n/a	n/a	35	1	n/a	n/a	n/a	n/a	n/a	right
416.924	0.592	correct	0.592	grate	n/a	n/a	n/a	n/a	n/a	n/a	35	1	n/a	n/a	n/a	n/a	n/a	right
418.041	0.683	correct	0.683	grate	n/a	n/a	n/a	n/a	n/a	n/a	35	1	n/a	n/a	n/a	n/a	n/a	right
419.241	0.587	correct	0.587	grate	n/a	n/a	n/a	n/a	n/a	n/a	35	1	n/a	n/a	n/a	n/a	n/a	right
420.341	0.167	incorrect	0.167	grate	n/a	n/a	n/a	n/a	n/a	n/a	35	1	n/a	n/a	n/a	n/a	n/a	right
422.006	3.000	forget	0.386	retrieval	retprac	object	face	scene	competitor	face	36	1	3	51	151	3	422.0	n/a
427.040	0.868	correct	0.868	grate	n/a	n/a	n/a	n/a	n/a	n/a	36	1	n/a	n/a	n/a	n/a	n/a	left
428.423	0.653	correct	0.653	grate	n/a	n/a	n/a	n/a	n/a	n/a	36	1	n/a	n/a	n/a	n/a	n/a	left
429.590	0.654	correct	0.654	grate	n/a	n/a	n/a	n/a	n/a	n/a	36	1	n/a	n/a	n/a	n/a	n/a	right
430.756	0.631	correct	0.631	grate	n/a	n/a	n/a	n/a	n/a	n/a	36	1	n/a	n/a	n/a	n/a	n/a	left
431.906	0.600	incorrect	0.600	grate	n/a	n/a	n/a	n/a	n/a	n/a	36	1	n/a	n/a	n/a	n/a	n/a	right
434.022	3.000	forget	0.650	retrieval	restudy	face	object	scene	competitor	object	37	1	50	2	50	102	434.0	n/a
439.056	1.035	correct	1.035	grate	n/a	n/a	n/a	n/a	n/a	n/a	37	1	n/a	n/a	n/a	n/a	n/a	right
440.605	0.590	correct	0.590	grate	n/a	n/a	n/a	n/a	n/a	n/a	37	1	n/a	n/a	n/a	n/a	n/a	left
441.705	0.490	correct	0.490	grate	n/a	n/a	n/a	n/a	n/a	n/a	37	1	n/a	n/a	n/a	n/a	n/a	right
442.705	0.763	correct	0.763	grate	n/a	n/a	n/a	n/a	n/a	n/a	37	1	n/a	n/a	n/a	n/a	n/a	left
443.988	0.533	incorrect	0.533	grate	n/a	n/a	n/a	n/a	n/a	n/a	37	1	n/a	n/a	n/a	n/a	n/a	left
446.020	3.000	forget	0.938	retrieval	retprac	object	face	scene	other	scene	38	1	1	49	149	1	446.0	n/a
451.055	0.796	correct	0.796	grate	n/a	n/a	n/a	n/a	n/a	n/a	38	1	n/a	n/a	n/a	n/a	n/a	left
452.371	0.536	correct	0.536	grate	n/a	n/a	n/a	n/a	n/a	n/a	38	1	n/a	n/a	n/a	n/a	n/a	left
453.421	0.830	correct	0.830	grate	n/a	n/a	n/a	n/a	n/a	n/a	38	1	n/a	n/a	n/a	n/a	n/a	right
454.770	0.673	correct	0.673	grate	n/a	n/a	n/a	n/a	n/a	n/a	38	1	n/a	n/a	n/a	n/a	n/a	right
455.954	0.567	incorrect	0.567	grate	n/a	n/a	n/a	n/a	n/a	n/a	38	1	n/a	n/a	n/a	n/a	n/a	left
458.019	3.000	forget	0.507	retrieval	restudy	scene	object	face	competitor	object	39	1	76	124	276	128	458.0	n/a
463.054	0.933	correct	0.933	grate	n/a	n/a	n/a	n/a	n/a	n/a	39	1	n/a	n/a	n/a	n/a	n/a	left
464.503	1.171	correct	1.171	grate	n/a	n/a	n/a	n/a	n/a	n/a	39	1	n/a	n/a	n/a	n/a	n/a	right
466.186	0.752	correct	0.752	grate	n/a	n/a	n/a	n/a	n/a	n/a	39	1	n/a	n/a	n/a	n/a	n/a	right
467.452	0.918	correct	0.918	grate	n/a	n/a	n/a	n/a	n/a	n/a	39	1	n/a	n/a	n/a	n/a	n/a	right
468.886	0.100	incorrect	0.100	grate	n/a	n/a	n/a	n/a	n/a	n/a	39	1	n/a	n/a	n/a	n/a	n/a	left
470.018	3.000	remember	0.404	retrieval	restudy	face	scene	object	target	face	40	1	104	32	80	208	470.0	n/a
475.052	1.045	correct	1.045	grate	n/a	n/a	n/a	n/a	n/a	n/a	40	1	n/a	n/a	n/a	n/a	n/a	right
476.618	0.655	correct	0.655	grate	n/a	n/a	n/a	n/a	n/a	n/a	40	1	n/a	n/a	n/a	n/a	n/a	right
477.785	0.617	correct	0.617	grate	n/a	n/a	n/a	n/a	n/a	n/a	40	1	n/a	n/a	n/a	n/a	n/a	left
478.918	0.587	correct	0.587	grate	n/a	n/a	n/a	n/a	n/a	n/a	40	1	n/a	n/a	n/a	n/a	n/a	right
480.018	0.500	incorrect	0.500	grate	n/a	n/a	n/a	n/a	n/a	n/a	40	1	n/a	n/a	n/a	n/a	n/a	right
482.017	3.000	remember	0.348	retrieval	retprac	face	object	scene	target	face	41	1	55	7	55	107	482.0	n/a
487.051	0.814	correct	0.814	grate	n/a	n/a	n/a	n/a	n/a	n/a	41	1	n/a	n/a	n/a	n/a	n/a	right
488.384	0.529	correct	0.529	grate	n/a	n/a	n/a	n/a	n/a	n/a	41	1	n/a	n/a	n/a	n/a	n/a	right
489.434	0.527	correct	0.527	grate	n/a	n/a	n/a	n/a	n/a	n/a	41	1	n/a	n/a	n/a	n/a	n/a	right
490.483	0.669	correct	0.669	grate	n/a	n/a	n/a	n/a	n/a	n/a	41	1	n/a	n/a	n/a	n/a	n/a	left
491.666	0.702	correct	0.702	grate	n/a	n/a	n/a	n/a	n/a	n/a	41	1	n/a	n/a	n/a	n/a	n/a	left
492.883	0.100	incorrect	0.100	grate	n/a	n/a	n/a	n/a	n/a	n/a	41	1	n/a	n/a	n/a	n/a	n/a	right
494.015	3.000	remember	0.213	retrieval	restudy	face	object	scene	target	face	42	1	56	8	56	108	494.0	n/a
499.050	0.591	correct	0.591	grate	n/a	n/a	n/a	n/a	n/a	n/a	42	1	n/a	n/a	n/a	n/a	n/a	left
500.149	0.548	correct	0.548	grate	n/a	n/a	n/a	n/a	n/a	n/a	42	1	n/a	n/a	n/a	n/a	n/a	right
501.216	0.521	correct	0.521	grate	n/a	n/a	n/a	n/a	n/a	n/a	42	1	n/a	n/a	n/a	n/a	n/a	left
502.249	0.488	correct	0.488	grate	n/a	n/a	n/a	n/a	n/a	n/a	42	1	n/a	n/a	n/a	n/a	n/a	right
503.249	0.752	correct	0.752	grate	n/a	n/a	n/a	n/a	n/a	n/a	42	1	n/a	n/a	n/a	n/a	n/a	right
504.515	0.000	incorrect	0.000	grate	n/a	n/a	n/a	n/a	n/a	n/a	42	1	n/a	n/a	n/a	n/a	n/a	left
506.014	3.000	remember	0.341	retrieval	retprac	scene	face	object	target	scene	43	1	27	99	251	27	506.0	n/a
511.049	0.711	correct	0.711	grate	n/a	n/a	n/a	n/a	n/a	n/a	43	1	n/a	n/a	n/a	n/a	n/a	left
512.281	0.607	correct	0.607	grate	n/a	n/a	n/a	n/a	n/a	n/a	43	1	n/a	n/a	n/a	n/a	n/a	right
513.398	0.570	correct	0.570	grate	n/a	n/a	n/a	n/a	n/a	n/a	43	1	n/a	n/a	n/a	n/a	n/a	right
514.481	0.527	correct	0.527	grate	n/a	n/a	n/a	n/a	n/a	n/a	43	1	n/a	n/a	n/a	n/a	n/a	left
515.531	0.741	correct	0.741	grate	n/a	n/a	n/a	n/a	n/a	n/a	43	1	n/a	n/a	n/a	n/a	n/a	right
516.781	0.100	incorrect	0.100	grate	n/a	n/a	n/a	n/a	n/a	n/a	43	1	n/a	n/a	n/a	n/a	n/a	left
518.013	3.000	forget	0.390	retrieval	restudy	scene	face	object	competitor	face	44	1	30	102	254	30	518.0	n/a
523.048	0.712	correct	0.712	grate	n/a	n/a	n/a	n/a	n/a	n/a	44	1	n/a	n/a	n/a	n/a	n/a	left
524.280	0.592	correct	0.592	grate	n/a	n/a	n/a	n/a	n/a	n/a	44	1	n/a	n/a	n/a	n/a	n/a	right
525.380	0.668	correct	0.668	grate	n/a	n/a	n/a	n/a	n/a	n/a	44	1	n/a	n/a	n/a	n/a	n/a	right
526.563	1.950	incorrect	1.950	grate	n/a	n/a	n/a	n/a	n/a	n/a	44	1	n/a	n/a	n/a	n/a	n/a	left
530.012	3.000	forget	0.663	retrieval	retprac	face	scene	object	other	object	45	1	99	27	75	203	530.0	n/a
535.046	0.873	correct	0.873	grate	n/a	n/a	n/a	n/a	n/a	n/a	45	1	n/a	n/a	n/a	n/a	n/a	left
536.429	0.626	correct	0.626	grate	n/a	n/a	n/a	n/a	n/a	n/a	45	1	n/a	n/a	n/a	n/a	n/a	right
537.562	0.669	correct	0.669	grate	n/a	n/a	n/a	n/a	n/a	n/a	45	1	n/a	n/a	n/a	n/a	n/a	right
538.745	0.614	correct	0.614	grate	n/a	n/a	n/a	n/a	n/a	n/a	45	1	n/a	n/a	n/a	n/a	n/a	left
539.878	0.568	correct	0.568	grate	n/a	n/a	n/a	n/a	n/a	n/a	45	1	n/a	n/a	n/a	n/a	n/a	left
540.962	0.100	incorrect	0.100	grate	n/a	n/a	n/a	n/a	n/a	n/a	45	1	n/a	n/a	n/a	n/a	n/a	left
542.011	3.000	remember	0.296	retrieval	retprac	scene	object	face	target	scene	46	1	75	123	275	127	542.0	n/a
547.045	1.409	correct	1.409	grate	n/a	n/a	n/a	n/a	n/a	n/a	46	1	n/a	n/a	n/a	n/a	n/a	right
548.977	1.173	correct	1.173	grate	n/a	n/a	n/a	n/a	n/a	n/a	46	1	n/a	n/a	n/a	n/a	n/a	right
550.661	1.218	correct	1.218	grate	n/a	n/a	n/a	n/a	n/a	n/a	46	1	n/a	n/a	n/a	n/a	n/a	right
552.394	0.117	incorrect	0.117	grate	n/a	n/a	n/a	n/a	n/a	n/a	46	1	n/a	n/a	n/a	n/a	n/a	right
554.009	3.000	remember	0.537	retrieval	restudy	object	scene	face	target	object	47	1	126	78	178	230	554.0	n/a
559.043	0.763	correct	0.763	grate	n/a	n/a	n/a	n/a	n/a	n/a	47	1	n/a	n/a	n/a	n/a	n/a	left
560.326	0.560	correct	0.560	grate	n/a	n/a	n/a	n/a	n/a	n/a	47	1	n/a	n/a	n/a	n/a	n/a	right
561.409	0.605	correct	0.605	grate	n/a	n/a	n/a	n/a	n/a	n/a	47	1	n/a	n/a	n/a	n/a	n/a	right
562.526	0.784	correct	0.784	grate	n/a	n/a	n/a	n/a	n/a	n/a	47	1	n/a	n/a	n/a	n/a	n/a	left
563.826	0.683	incorrect	0.683	grate	n/a	n/a	n/a	n/a	n/a	n/a	47	1	n/a	n/a	n/a	n/a	n/a	left
566.008	3.000	remember	0.473	retrieval	retprac	scene	face	object	target	scene	48	1	31	103	255	31	566.0	n/a
571.042	0.771	correct	0.771	grate	n/a	n/a	n/a	n/a	n/a	n/a	48	1	n/a	n/a	n/a	n/a	n/a	right
572.325	0.680	correct	0.680	grate	n/a	n/a	n/a	n/a	n/a	n/a	48	1	n/a	n/a	n/a	n/a	n/a	left
573.525	0.617	correct	0.617	grate	n/a	n/a	n/a	n/a	n/a	n/a	48	1	n/a	n/a	n/a	n/a	n/a	right
574.658	0.715	correct	0.715	grate	n/a	n/a	n/a	n/a	n/a	n/a	48	1	n/a	n/a	n/a	n/a	n/a	right
575.891	0.570	correct	0.570	grate	n/a	n/a	n/a	n/a	n/a	n/a	48	1	n/a	n/a	n/a	n/a	n/a	right
576.975	0.100	incorrect	0.100	grate	n/a	n/a	n/a	n/a	n/a	n/a	48	1	n/a	n/a	n/a	n/a	n/a	left
